ax,ay,az,gx,gy,gz,session,reading_index
327,-1984,-239,-440,-1027,36,2025-11-12_19-43-52,0
1025,-1861,-198,-856,816,-231,2025-11-12_19-43-52,1
-28,-1817,205,1022,-1269,-433,2025-11-12_19-43-52,2
328,-2036,-353,1819,-1758,-363,2025-11-12_19-43-52,3
218,-2493,228,-1009,44,-12,2025-11-12_19-43-52,4
396,-2031,-216,-478,-389,-96,2025-11-12_19-43-52,5
-303,-1934,455,-863,2045,-563,2025-11-12_19-43-52,6
5,-2021,-312,2731,323,-108,2025-11-12_19-43-52,7
-591,-2405,647,-1768,-380,166,2025-11-12_19-43-52,8
263,-1901,-28,-603,-287,-123,2025-11-12_19-43-52,9
760,-2197,-862,-915,-920,-208,2025-11-12_19-43-52,10
159,-1992,7,2869,518,-353,2025-11-12_19-43-52,11
-392,-1970,-649,-277,888,89,2025-11-12_19-43-52,12
344,-2021,-229,-652,-111,-92,2025-11-12_19-43-52,13
-582,-2255,-222,-304,-1974,-104,2025-11-12_19-43-52,14
-82,-1904,164,2433,1000,-113,2025-11-12_19-43-52,15
1260,-1920,-794,-399,-769,676,2025-11-12_19-43-52,16
369,-1958,-123,-186,514,-109,2025-11-12_19-43-52,17
119,-2008,-392,1945,1430,-6,2025-11-12_19-43-52,18
-9,-2249,362,-1127,-425,215,2025-11-12_19-43-52,19
284,-1972,-171,-450,-278,-104,2025-11-12_19-43-52,20
-137,-1356,-327,-1210,1717,-522,2025-11-12_19-43-52,21
411,-2065,-248,2258,-359,-521,2025-11-12_19-43-52,22
349,-1995,-166,-870,-613,87,2025-11-12_19-43-52,23
412,-1992,-200,-829,199,-235,2025-11-12_19-43-52,24
8,-1697,116,-43,593,-412,2025-11-12_19-43-52,25
596,-1886,-707,2075,-264,-191,2025-11-12_19-43-52,26
218,-2077,-167,-786,-438,62,2025-11-12_19-43-52,27
41,-2083,-205,-386,-1691,-117,2025-11-12_19-43-52,28
87,-1981,15,2771,712,-205,2025-11-12_19-43-52,29
-234,-2556,-90,-1533,-1322,318,2025-11-12_19-43-52,30
133,-2037,-34,-445,611,-127,2025-11-12_19-43-52,31
339,-1851,-23,1734,1537,-659,2025-11-12_19-43-52,32
121,-2430,-276,-1300,-64,603,2025-11-12_19-43-52,33
-406,-2198,-218,-523,471,-115,2025-11-12_19-43-52,34
296,-1933,-211,2179,1020,-364,2025-11-12_19-43-52,35
-158,-2422,-57,-686,-462,427,2025-11-12_19-43-52,36
339,-1977,-132,-772,292,-240,2025-11-12_19-43-52,37
61,-2023,-196,1798,-412,-129,2025-11-12_19-43-52,38
448,-2026,-462,-840,-915,70,2025-11-12_19-43-52,39
517,-2041,-307,-1071,955,-305,2025-11-12_19-43-52,40
79,-1940,-167,1473,686,-523,2025-11-12_19-43-52,41
697,-1761,-892,-774,597,354,2025-11-12_19-43-52,42
362,-1971,-248,-593,-41,-20,2025-11-12_19-43-52,43
-371,-1930,-1289,-3218,3138,-388,2025-11-12_19-43-52,44
186,-1972,-348,2418,114,-331,2025-11-12_19-43-52,45
-63,-2773,521,-1581,-142,-8,2025-11-12_19-43-52,46
232,-2002,115,-660,-110,-169,2025-11-12_19-43-52,47
446,-1599,-414,-1173,3302,-543,2025-11-12_19-43-52,48
733,-1946,-501,1818,1299,1144,2025-11-12_19-43-52,49
867,-1799,-694,-1355,2034,-378,2025-11-12_19-43-52,50
153,-1923,94,2268,1149,-322,2025-11-12_19-43-52,51
1245,-2096,-787,-424,-138,566,2025-11-12_19-43-52,52
234,-1939,-197,-516,74,-162,2025-11-12_19-43-52,53
-452,-1679,-18,-2069,1837,-656,2025-11-12_19-43-52,54
156,-1932,-556,2897,227,-258,2025-11-12_19-43-52,55
1165,-2212,-645,-574,-853,487,2025-11-12_19-43-52,56
471,-1902,-95,-693,103,-185,2025-11-12_19-43-52,57
-324,-2536,-467,-633,-1248,-376,2025-11-12_19-43-52,58
128,-1814,150,1429,1272,-529,2025-11-12_19-43-52,59
249,-2029,-178,-484,272,-107,2025-11-12_19-44-55,0
252,-1943,-187,1725,1551,-650,2025-11-12_19-44-55,1
1103,-1808,-1003,-639,-119,541,2025-11-12_19-44-55,2
660,-1890,-102,-418,-846,-125,2025-11-12_19-44-55,3
383,-2233,-789,-1172,-268,-274,2025-11-12_19-44-55,4
88,-1925,-98,3001,879,-250,2025-11-12_19-44-55,5
-75,-1920,-302,298,624,301,2025-11-12_19-44-55,6
150,-2132,-269,-981,-369,-1,2025-11-12_19-44-55,7
354,-2211,-280,-785,219,-266,2025-11-12_19-44-55,8
225,-1430,-454,-818,1765,-653,2025-11-12_19-44-55,9
316,-2017,-437,2717,-174,-255,2025-11-12_19-44-55,10
-412,-2382,-124,-1509,-659,91,2025-11-12_19-44-55,11
331,-1975,-106,-518,-190,-120,2025-11-12_19-44-55,12
-53,-3087,535,-1955,2507,-605,2025-11-12_19-44-55,13
921,-2006,-540,579,2730,442,2025-11-12_19-44-55,14
-508,-2091,-167,-678,-337,-249,2025-11-12_19-44-55,15
28,-2114,-243,2861,506,-179,2025-11-12_19-44-55,16
471,-2527,-346,-651,-1286,514,2025-11-12_19-44-55,17
334,-1956,-172,-723,73,-183,2025-11-12_19-44-55,18
-79,-2094,-643,-1539,-25,-709,2025-11-12_19-44-55,19
-162,-1830,17,1889,172,-340,2025-11-12_19-44-55,20
276,-1910,-556,2341,-968,-364,2025-11-12_19-44-55,21
279,-2032,-129,-1390,-704,116,2025-11-12_19-44-55,22
132,-2011,-29,-624,-303,-47,2025-11-12_19-44-55,23
-688,-3430,583,-693,2236,-847,2025-11-12_19-44-55,24
236,-1968,-428,2942,175,-470,2025-11-12_19-44-55,25
-166,-2330,-18,-1293,-1087,599,2025-11-12_19-44-55,26
-24,-2060,-281,-541,322,-26,2025-11-12_19-44-55,27
426,-1609,175,-386,2310,-701,2025-11-12_19-44-55,28
378,-1909,-233,1575,-673,479,2025-11-12_19-44-55,29
263,-1970,-195,-523,438,-124,2025-11-12_19-44-55,30
40,-2840,343,-2240,3363,-421,2025-11-12_19-44-55,31
-255,-2113,-354,2097,-1033,-327,2025-11-12_19-44-55,32
-667,-2342,396,-1638,-944,80,2025-11-12_19-44-55,33
368,-1924,-200,-626,-182,-155,2025-11-12_19-44-55,34
458,-1810,-898,-1360,-352,-606,2025-11-12_19-44-55,35
-119,-1710,280,1639,1248,-78,2025-11-12_19-44-55,36
355,-2046,-220,2207,-1142,-224,2025-11-12_19-44-55,37
-401,-3373,923,-1918,-385,-66,2025-11-12_19-44-55,38
365,-1910,-335,-672,-252,-284,2025-11-12_19-44-55,39
-624,-2077,-320,-2448,1591,-861,2025-11-12_19-44-55,40
-22,-2055,-280,2905,1286,-122,2025-11-12_19-44-55,41
1024,-2343,-656,-722,-488,803,2025-11-12_19-44-55,42
55,-2087,-325,-419,1332,-169,2025-11-12_19-44-55,43
-6,-2063,-250,2390,597,-110,2025-11-12_19-44-55,44
-71,-2373,-45,-1287,-1191,440,2025-11-12_19-44-55,45
403,-2000,-205,-467,-140,-100,2025-11-12_19-44-55,46
-586,-1642,-940,-3340,3943,-520,2025-11-12_19-44-55,47
20,-1903,-506,2072,375,-220,2025-11-12_19-44-55,48
277,-1960,-709,-1011,821,154,2025-11-12_19-44-55,49
434,-1930,-405,-711,67,-92,2025-11-12_19-44-55,50
576,-1928,-605,-1270,2,-639,2025-11-12_19-44-55,51
85,-1868,235,2195,399,-296,2025-11-12_19-44-55,52
-354,-1880,-559,421,115,233,2025-11-12_19-44-55,53
229,-2008,-555,-879,-392,-42,2025-11-12_19-44-55,54
-413,-2297,-745,-963,-1414,-994,2025-11-12_19-44-55,55
587,-2027,-683,2166,2259,40,2025-11-12_19-44-55,56
-224,-1614,319,709,-246,300,2025-11-12_19-45-55,0
188,-1929,-514,2392,-2385,-340,2025-11-12_19-45-55,1
319,-2009,-170,-909,-529,-94,2025-11-12_19-45-55,2
300,-1893,-267,-603,-1199,-52,2025-11-12_19-45-55,3
45,-1905,69,1453,1375,-217,2025-11-12_19-45-55,4
198,-1786,-395,1154,-617,236,2025-11-12_19-45-55,5
244,-2049,-368,-954,-141,-93,2025-11-12_19-45-55,6
138,-1969,-275,-1009,151,-401,2025-11-12_19-45-55,7
68,-1932,-35,2691,726,-83,2025-11-12_19-45-55,8
179,-2098,-715,-957,474,201,2025-11-12_19-45-55,9
284,-1927,-104,-565,-187,-74,2025-11-12_19-45-55,10
779,-2089,-781,682,3862,-302,2025-11-12_19-45-55,11
121,-2247,162,-771,189,514,2025-11-12_19-45-55,12
913,-1918,-66,-992,619,-204,2025-11-12_19-45-55,13
8,-1907,263,1400,135,-457,2025-11-12_19-45-55,14
-153,-1732,-534,697,-370,275,2025-11-12_19-45-55,15
372,-1981,-180,-761,-540,-159,2025-11-12_19-45-55,16
425,-1938,-123,-694,-857,-52,2025-11-12_19-45-55,17
83,-1789,314,781,204,-427,2025-11-12_19-45-55,18
-19,-1793,-546,562,58,97,2025-11-12_19-45-55,19
343,-2062,-321,-981,-312,-76,2025-11-12_19-45-55,20
444,-2031,-234,-989,720,-204,2025-11-12_19-45-55,21
212,-1824,-79,-241,1573,-327,2025-11-12_19-45-55,22
439,-2001,-535,2302,-664,-400,2025-11-12_19-45-55,23
191,-2113,-415,-911,-199,63,2025-11-12_19-45-55,24
148,-2020,-164,-568,-395,-699,2025-11-12_19-45-55,25
531,-2130,-183,2170,1503,-36,2025-11-12_19-45-55,26
268,-2609,-253,-1044,290,270,2025-11-12_19-45-55,27
706,-1929,-373,-713,291,-169,2025-11-12_19-45-55,28
225,-1883,-451,2171,707,-241,2025-11-12_19-45-55,29
-161,-1880,-762,-39,-1802,-415,2025-11-12_19-45-55,30
354,-2049,-44,-752,-701,-171,2025-11-12_19-45-55,31
352,-2021,60,-845,245,-294,2025-11-12_19-45-55,32
234,-1854,52,-71,2212,-549,2025-11-12_19-45-55,33
587,-2046,-649,2341,-389,-351,2025-11-12_19-45-55,34
168,-2060,-209,-1347,-562,80,2025-11-12_19-45-55,35
259,-1989,-82,-533,-649,-82,2025-11-12_19-45-55,36
318,-1590,-191,-881,1162,-375,2025-11-12_19-45-55,37
454,-1951,-347,2321,-252,-690,2025-11-12_19-45-55,38
489,-2613,-334,-1108,-413,53,2025-11-12_19-45-55,39
167,-2176,-222,-883,870,-263,2025-11-12_19-45-55,40
994,-1938,-694,-28,3288,469,2025-11-12_19-45-55,41
372,-1933,-322,-408,-22,-96,2025-11-12_19-45-55,42
210,-1664,23,-416,1255,-429,2025-11-12_19-45-55,43
314,-1931,-453,1964,-1217,-146,2025-11-12_19-45-55,44
275,-2057,-311,-793,-354,-66,2025-11-12_19-45-55,45
-119,-2075,-133,-600,-1342,-218,2025-11-12_19-45-55,46
86,-1835,122,1387,1170,-412,2025-11-12_19-45-55,47
87,-1885,-526,2051,-1328,-161,2025-11-12_19-45-55,48
234,-2087,-278,-1124,-392,76,2025-11-12_19-45-55,49
379,-2089,-139,-950,436,-350,2025-11-12_19-45-55,50
354,-1806,39,-387,1354,-492,2025-11-12_19-45-55,51
400,-2035,-317,2355,-1164,-269,2025-11-12_19-45-55,52
303,-2002,-246,-1026,-644,42,2025-11-12_19-45-55,53
642,-1975,-162,-952,982,-114,2025-11-12_19-45-55,54
588,-2120,-443,1664,2066,-335,2025-11-12_19-45-55,55
49,-2351,276,-1004,-259,695,2025-11-12_19-45-55,56
-56,-1893,96,1924,817,-106,2025-11-12_19-46-56,0
206,-1896,-344,1488,-1377,-103,2025-11-12_19-46-56,1
-9,-2210,-180,-1311,-53,74,2025-11-12_19-46-56,2
-47,-2153,-315,-686,-43,-217,2025-11-12_19-46-56,3
-292,-2390,945,-740,2850,-653,2025-11-12_19-46-56,4
378,-2004,-504,2769,-41,-257,2025-11-12_19-46-56,5
-109,-2667,-44,-1347,-1394,331,2025-11-12_19-46-56,6
414,-1949,-106,-592,-288,-145,2025-11-12_19-46-56,7
532,-1942,-617,-1370,590,-808,2025-11-12_19-46-56,8
829,-2058,-340,1165,2561,-259,2025-11-12_19-46-56,9
-27,-1955,-879,-274,252,295,2025-11-12_19-46-56,10
826,-2170,-696,-1030,-1147,-663,2025-11-12_19-46-56,11
30,-1766,-42,2132,1373,-111,2025-11-12_19-46-56,12
400,-1927,-506,2021,-672,-206,2025-11-12_19-46-56,13
-81,-3006,-120,-1652,-1324,152,2025-11-12_19-46-56,14
349,-1976,-246,-721,-142,-150,2025-11-12_19-46-56,15
1621,-2286,-928,-433,-1776,-23,2025-11-12_19-46-56,16
234,-2068,-114,2363,1297,-172,2025-11-12_19-46-56,17
229,-1994,-472,2585,-732,-366,2025-11-12_19-46-56,18
-453,-2401,497,-1723,-959,364,2025-11-12_19-46-56,19
453,-1963,-2,-552,-175,-193,2025-11-12_19-46-56,20
694,-2127,-1202,-1357,-1201,-443,2025-11-12_19-46-56,21
756,-2249,-507,2006,1805,185,2025-11-12_19-46-56,22
-210,-2761,441,-1942,-293,552,2025-11-12_19-46-56,23
95,-2003,-126,-464,-147,-63,2025-11-12_19-46-56,24
354,-1711,-641,-573,1176,-754,2025-11-12_19-46-56,25
622,-1957,119,-1414,-2682,465,2025-11-12_19-46-56,26
980,-2093,881,-281,1673,138,2025-11-12_19-46-56,27
321,-1947,-48,-559,-122,-195,2025-11-12_19-46-56,28
-615,-1648,-704,-2424,1811,-206,2025-11-12_19-46-56,29
83,-1968,-274,2826,766,-468,2025-11-12_19-46-56,30
-194,-1761,-529,515,104,362,2025-11-12_19-46-56,31
215,-2105,-295,-1020,-205,-22,2025-11-12_19-46-56,32
247,-2119,-318,-977,767,-305,2025-11-12_19-46-56,33
-524,-2739,1144,-793,1883,-502,2025-11-12_19-46-56,34
100,-2117,-615,3467,423,-270,2025-11-12_19-46-56,35
-108,-2255,-715,-975,1529,-13,2025-11-12_19-46-56,36
405,-1962,-148,-805,-438,-99,2025-11-12_19-46-56,37
-387,-2125,-979,-959,-434,-804,2025-11-12_19-46-56,38
266,-1969,236,606,-2958,-44,2025-11-12_19-46-56,39
-198,-3138,-221,-1037,-432,12,2025-11-12_19-46-56,40
859,-1876,-155,-1058,869,-249,2025-11-12_19-46-56,41
277,-1678,20,61,2462,-540,2025-11-12_19-46-56,42
20,-2093,-117,2229,366,-442,2025-11-12_19-46-56,43
2,-1736,-398,2556,-1370,-261,2025-11-12_19-46-56,44
558,-2708,-257,-1230,-48,72,2025-11-12_19-46-56,45
117,-1984,-82,-772,3,-116,2025-11-12_19-46-56,46
-951,-1749,-391,-2576,1797,-759,2025-11-12_19-46-56,47
181,-2011,-185,2406,1600,-384,2025-11-12_19-46-56,48
-226,-1847,-388,1584,-937,-49,2025-11-12_19-46-56,49
339,-2031,-495,-934,-351,-39,2025-11-12_19-46-56,50
622,-1868,-194,-807,-6,-74,2025-11-12_19-46-56,51
362,-1925,-303,1671,1374,-488,2025-11-12_19-46-56,52
4,-1789,-617,530,-378,316,2025-11-12_19-46-56,53
176,-2008,-494,-650,372,-51,2025-11-12_19-46-56,54
-534,-2237,-747,-1940,3953,-462,2025-11-12_19-46-56,55
247,-2015,-553,2461,-313,-647,2025-11-12_19-46-56,56
344,-2132,-646,2356,-545,-114,2025-11-12_19-47-58,0
170,-2108,-383,-1389,-348,98,2025-11-12_19-47-58,1
349,-2036,-301,-612,-79,-143,2025-11-12_19-47-58,2
-380,-1622,-940,-3266,3287,-670,2025-11-12_19-47-58,3
178,-2046,-411,2971,434,-148,2025-11-12_19-47-58,4
517,-1822,-873,-959,393,165,2025-11-12_19-47-58,5
299,-1943,-91,-350,-474,-24,2025-11-12_19-47-58,6
222,-1917,350,593,-2958,-155,2025-11-12_19-47-58,7
-229,-2363,-43,-1222,-786,-265,2025-11-12_19-47-58,8
271,-2032,-276,-473,-583,3,2025-11-12_19-47-58,9
150,-3026,384,-2142,2790,-550,2025-11-12_19-47-58,10
133,-2058,-453,3004,507,-457,2025-11-12_19-47-58,11
670,-2159,-353,-358,-1757,422,2025-11-12_19-47-58,12
431,-1962,-75,-742,371,-142,2025-11-12_19-47-58,13
-115,-2194,-465,-792,-1080,-382,2025-11-12_19-47-58,14
80,-1778,55,2077,1172,-256,2025-11-12_19-47-58,15
-99,-1786,-414,1763,-851,-24,2025-11-12_19-47-58,16
262,-2111,-10,-1356,-565,-31,2025-11-12_19-47-58,17
363,-1978,-195,-590,-296,-124,2025-11-12_19-47-58,18
544,-1619,-132,-65,3116,-763,2025-11-12_19-47-58,19
951,-2021,-705,2482,950,304,2025-11-12_19-47-58,20
301,-2046,-211,-756,143,29,2025-11-12_19-47-58,21
-198,-2100,-170,-513,-965,-430,2025-11-12_19-47-58,22
453,-1962,-555,2181,754,-551,2025-11-12_19-47-58,23
39,-1558,-569,1340,-1546,-539,2025-11-12_19-47-58,24
531,-1950,-319,-528,-958,-66,2025-11-12_19-47-58,25
-36,-2106,-196,-680,-1021,-136,2025-11-12_19-47-58,26
163,-1689,-109,466,1943,-364,2025-11-12_19-47-58,27
427,-1769,-473,2329,425,-94,2025-11-12_19-47-58,28
172,-2084,-99,-1478,-358,60,2025-11-12_19-47-58,29
243,-2080,-202,-622,-87,-16,2025-11-12_19-47-58,30
-216,-2071,-1253,-2936,4070,-385,2025-11-12_19-47-58,31
83,-1976,-137,2960,636,-376,2025-11-12_19-47-58,32
-286,-1817,-502,636,-205,173,2025-11-12_19-47-58,33
254,-1976,24,-809,-96,52,2025-11-12_19-47-58,34
-131,-1606,-746,-39,3276,-499,2025-11-12_19-47-58,35
630,-2044,-4,1641,0,94,2025-11-12_19-47-58,36
92,-2137,-257,-873,-382,-13,2025-11-12_19-47-58,37
694,-1988,-114,-922,181,-145,2025-11-12_19-47-58,38
15,-1594,-124,-344,889,-403,2025-11-12_19-47-58,39
116,-1985,-413,2474,568,-480,2025-11-12_19-47-58,40
1015,-2189,-470,-1209,247,334,2025-11-12_19-47-58,41
407,-2004,-243,-736,-10,-168,2025-11-12_19-47-58,42
-5,-2216,-555,-860,-1036,-685,2025-11-12_19-47-58,43
256,-1825,-160,68,1638,-440,2025-11-12_19-47-58,44
347,-2103,-159,2425,-1373,-471,2025-11-12_19-47-58,45
-392,-2370,194,-1800,-268,126,2025-11-12_19-47-58,46
23,-2001,70,-756,-47,-3,2025-11-12_19-47-58,47
611,-1407,-338,-599,2902,-861,2025-11-12_19-47-58,48
584,-2051,-361,1636,162,11,2025-11-12_19-47-58,49
94,-2052,41,-851,-138,99,2025-11-12_19-47-58,50
540,-1876,-270,-638,13,-32,2025-11-12_19-47-58,51
22,-1848,23,1063,274,-445,2025-11-12_19-47-58,52
563,-1552,-1317,1050,-6331,-1171,2025-11-12_19-47-58,53
373,-1939,-269,-193,-803,-310,2025-11-12_19-47-58,54
-222,-2154,-528,-1959,1557,-255,2025-11-12_19-47-58,55
714,-721,-585,-2020,1577,-128,2025-11-12_20-06-30,0
989,-891,-1279,4515,742,2042,2025-11-12_20-06-30,1
423,-1234,-1070,173,1074,491,2025-11-12_20-06-30,2
1040,-2781,404,-2962,262,-611,2025-11-12_20-06-30,3
130,-1957,113,-1360,139,-373,2025-11-12_20-06-30,4
316,-1858,-14,-787,44,-314,2025-11-12_20-06-30,5
-142,-1947,-352,716,-1336,392,2025-11-12_20-06-30,6
989,-1572,-1296,3132,-849,1203,2025-11-12_20-06-30,7
772,-2308,-1737,-2648,2898,-45,2025-11-12_20-06-30,8
-214,-1966,-187,-1470,-41,-545,2025-11-12_20-06-30,9
407,-1944,-295,-515,-180,-190,2025-11-12_20-06-30,10
-218,-2348,-512,-245,-1259,-194,2025-11-12_20-06-30,11
456,-2304,-1530,-2225,1696,-532,2025-11-12_20-06-30,12
-86,-966,-267,-1970,1452,-215,2025-11-12_20-06-30,13
612,-863,-1497,4940,1686,2123,2025-11-12_20-06-30,14
399,-1105,-1092,1836,-988,1133,2025-11-12_20-06-30,15
922,-3639,240,-3806,980,-70,2025-11-12_20-06-30,16
214,-1875,-358,-1144,996,-234,2025-11-12_20-06-30,17
119,-1967,-105,-730,490,-432,2025-11-12_20-06-30,18
1324,-2305,-375,-1072,1078,31,2025-11-12_20-06-30,19
1350,-3605,2106,-1849,-2972,-449,2025-11-12_20-06-30,20
839,-2407,-1021,5465,-325,1514,2025-11-12_20-06-30,21
665,-790,-1627,2251,-731,861,2025-11-12_20-06-30,22
756,-3102,163,-3699,1102,-448,2025-11-12_20-06-30,23
-85,-2061,-334,-1315,1320,-38,2025-11-12_20-06-30,24
408,-1977,-233,-666,247,-4,2025-11-12_20-06-30,25
449,-1838,-511,-920,166,-336,2025-11-12_20-06-30,26
-1426,-1956,-343,-1817,6959,1311,2025-11-12_20-06-30,27
227,-2197,-1283,124,-672,-190,2025-11-12_20-06-30,28
1003,-2801,-952,-1809,249,-669,2025-11-12_20-06-30,29
197,-1986,-152,-538,427,-175,2025-11-12_20-06-30,30
609,-2002,-783,-723,-448,-457,2025-11-12_20-06-30,31
1087,-2223,-1530,-1062,-2663,-258,2025-11-12_20-06-30,32
1566,-2328,-1613,6393,-642,1390,2025-11-12_20-06-30,33
418,-975,-1593,2038,-1351,428,2025-11-12_20-06-30,34
840,-3871,809,-3758,1092,-752,2025-11-12_20-06-30,35
-16,-1925,19,-943,547,-174,2025-11-12_20-06-30,36
226,-2061,-327,-502,55,-188,2025-11-12_20-06-30,37
-890,-1936,-699,-443,-750,-110,2025-11-12_20-06-30,38
-453,-1473,326,-1068,2303,-386,2025-11-12_20-06-30,39
440,-767,-1433,1393,415,2332,2025-11-12_20-06-30,40
770,-2735,464,-2795,901,-647,2025-11-12_20-06-30,41
305,-1949,261,-893,-143,-449,2025-11-12_20-06-30,42
889,-1843,-251,-605,-159,-247,2025-11-12_20-06-30,43
-132,-1852,-639,-573,-1142,-505,2025-11-12_20-06-30,44
-281,-2605,-226,-920,-1848,-388,2025-11-12_20-06-30,45
795,-3048,-578,5385,1054,1488,2025-11-12_20-06-30,46
315,-905,-1401,1256,440,1294,2025-11-12_20-06-30,47
1074,-2668,229,-2779,1462,-476,2025-11-12_20-06-30,48
311,-1974,-463,-761,-142,-270,2025-11-12_20-06-30,49
202,-2017,-416,-506,344,-151,2025-11-12_20-06-30,50
3346,-1753,63,128,-1845,403,2025-11-12_20-06-30,51
1014,-1602,-1076,2852,-1863,615,2025-11-12_20-06-30,52
735,-2611,19,-3043,669,-775,2025-11-12_20-06-30,53
66,-1857,102,-1081,296,-344,2025-11-12_20-06-30,54
419,-1936,-152,-690,407,-157,2025-11-12_20-06-30,55
-652,-2250,-526,-345,-2633,-96,2025-11-12_20-06-30,56
700,-2950,-580,-2000,1500,-120,2025-11-12_20-07-30,0
970,-3100,-1260,4500,720,2020,2025-11-12_20-07-30,1
430,-1220,-1070,160,1060,480,2025-11-12_20-07-30,2
1030,-2780,410,-2970,250,-620,2025-11-12_20-07-30,3
120,-1940,100,-1350,120,-380,2025-11-12_20-07-30,4
300,-1840,0,-790,30,-320,2025-11-12_20-07-30,5
-130,-1930,-340,700,-1320,380,2025-11-12_20-07-30,6
970,-1560,-1280,3120,-850,1190,2025-11-12_20-07-30,7
760,-2290,-1720,-2650,2880,-30,2025-11-12_20-07-30,8
-200,-1950,-170,-1460,-30,-530,2025-11-12_20-07-30,9
400,-1930,-280,-500,-170,-180,2025-11-12_20-07-30,10
-200,-2330,-500,-230,-1240,-180,2025-11-12_20-07-30,11
440,-2290,-1520,-2210,1680,-520,2025-11-12_20-07-30,12
-70,-950,-250,-1960,1440,-200,2025-11-12_20-07-30,13
600,-850,-1480,4930,1670,2110,2025-11-12_20-07-30,14
380,-1090,-1080,1820,-970,1120,2025-11-12_20-07-30,15
910,-3620,230,-3790,970,-60,2025-11-12_20-07-30,16
200,-1860,-340,-1130,980,-220,2025-11-12_20-07-30,17
100,-1950,-90,-720,480,-420,2025-11-12_20-07-30,18
1310,-2290,-360,-1060,1060,20,2025-11-12_20-07-30,19
1340,-3590,2090,-1830,-2960,-430,2025-11-12_20-07-30,20
820,-2390,-1010,5450,-310,1500,2025-11-12_20-07-30,21
650,-780,-1610,2240,-720,850,2025-11-12_20-07-30,22
740,-3090,150,-3680,1090,-430,2025-11-12_20-07-30,23
-70,-2050,-320,-1300,1310,-20,2025-11-12_20-07-30,24
390,-1960,-220,-650,230,0,2025-11-12_20-07-30,25
430,-1820,-500,-910,150,-320,2025-11-12_20-07-30,26
-1430,-1940,-330,-1800,6940,1300,2025-11-12_20-07-30,27
210,-2180,-1270,110,-660,-180,2025-11-12_20-07-30,28
990,-2790,-940,-1790,230,-650,2025-11-12_20-07-30,29
190,-1970,-140,-520,410,-160,2025-11-12_20-07-30,30
590,-1990,-770,-710,-430,-440,2025-11-12_20-07-30,31
1070,-2210,-1520,-1050,-2650,-240,2025-11-12_20-07-30,32
1550,-2310,-1600,6380,-630,1380,2025-11-12_20-07-30,33
400,-960,-1580,2020,-1340,410,2025-11-12_20-07-30,34
830,-3860,790,-3740,1080,-740,2025-11-12_20-07-30,35
0,-1910,10,-930,530,-160,2025-11-12_20-07-30,36
210,-2050,-310,-490,40,-170,2025-11-12_20-07-30,37
-900,-1920,-680,-430,-740,-100,2025-11-12_20-07-30,38
-460,-1460,310,-1050,2290,-370,2025-11-12_20-07-30,39
430,-750,-1420,1380,400,2320,2025-11-12_20-07-30,40
760,-4200,450,-2780,890,-630,2025-11-12_20-07-30,41
290,-1930,250,-880,-130,-430,2025-11-12_20-07-30,42
870,-1830,-240,-590,-140,-230,2025-11-12_20-07-30,43
-140,-1840,-620,-560,-1130,-490,2025-11-12_20-07-30,44
-290,-2590,-210,-910,-1830,-370,2025-11-12_20-07-30,45
780,-3030,-560,5370,1040,1470,2025-11-12_20-07-30,46
300,-890,-1390,1240,430,1280,2025-11-12_20-07-30,47
1060,-2650,210,-2760,1450,-460,2025-11-12_20-07-30,48
300,-1960,-450,-750,-130,-260,2025-11-12_20-07-30,49
190,-2000,-400,-490,330,-140,2025-11-12_20-07-30,50
3330,-1740,50,110,-1830,390,2025-11-12_20-07-30,51
1000,-1590,-1060,2840,-1850,600,2025-11-12_20-07-30,52
720,-2600,10,-3030,650,-760,2025-11-12_20-07-30,53
50,-1840,90,-1070,280,-330,2025-11-12_20-07-30,54
400,-1920,-140,-680,390,-140,2025-11-12_20-07-30,55
-660,-2240,-510,-330,-2620,-860,2025-11-12_20-07-30,56
690,-741,-585,-2040,1597,-148,2025-11-12_20-08-30,0
969,-891,-1279,4495,722,2022,2025-11-12_20-08-30,1
423,-1234,-1080,153,1054,471,2025-11-12_20-08-30,2
1020,-2771,404,-2962,242,-611,2025-11-12_20-08-30,3
110,-1957,113,-1360,139,-383,2025-11-12_20-08-30,4
296,-1858,-14,-787,44,-334,2025-11-12_20-08-30,5
-142,-1947,-352,716,-1336,372,2025-11-12_20-08-30,6
989,-1572,-1296,3132,-869,1203,2025-11-12_20-08-30,7
772,-2308,-1737,-2658,5900,-45,2025-11-12_20-08-30,8
-214,-1966,-187,-1470,-41,-555,2025-11-12_20-08-30,9
417,-1944,-205,-525,-180,-100,2025-11-12_20-08-30,10
-228,-2358,-522,-255,-1269,-104,2025-11-12_20-08-30,11
456,-2304,-1530,-2225,1706,-542,2025-11-12_20-08-30,12
-96,-976,-277,-1970,1462,-215,2025-11-12_20-08-30,13
612,-863,-1497,4950,1696,2133,2025-11-12_20-08-30,14
409,-1105,-1092,1846,-998,1143,2025-11-12_20-08-30,15
932,-3649,250,-3806,990,-80,2025-11-12_20-08-30,16
214,-1885,-358,-1154,996,-234,2025-11-12_20-08-30,17
129,-1977,-105,-730,400,-432,2025-11-12_20-08-30,18
1334,-2315,-385,-1082,1088,41,2025-11-12_20-08-30,19
1360,-3615,2106,-1859,-2982,-459,2025-11-12_20-08-30,20
849,-2417,-1031,5475,-335,1524,2025-11-12_20-08-30,21
675,-800,-1637,2261,-741,871,2025-11-12_20-08-30,22
766,-3112,173,-3709,1112,-458,2025-11-12_20-08-30,23
-85,-2071,-334,-1325,1330,-48,2025-11-12_20-08-30,24
418,-1987,-243,-676,257,-14,2025-11-12_20-08-30,25
459,-1848,-521,-930,176,-346,2025-11-12_20-08-30,26
-1416,-1966,-353,-1827,6969,1321,2025-11-12_20-08-30,27
237,-2207,-1293,134,-682,-200,2025-11-12_20-08-30,28
1013,-2811,-962,-1819,259,-679,2025-11-12_20-08-30,29
207,-1996,-162,-548,437,-185,2025-11-12_20-08-30,30
619,-2012,-793,-733,-458,-467,2025-11-12_20-08-30,31
1097,-2233,-1540,-1072,-2673,-268,2025-11-12_20-08-30,32
1576,-2338,-1623,6403,-652,1300,2025-11-12_20-08-30,33
428,-985,-1603,2048,-1361,438,2025-11-12_20-08-30,34
850,-3881,819,-3768,1102,-762,2025-11-12_20-08-30,35
-26,-1945,29,-953,557,-184,2025-11-12_20-08-30,36
236,-2071,-337,-512,65,-198,2025-11-12_20-08-30,37
-880,-1946,-709,-453,-760,-120,2025-11-12_20-08-30,38
-443,-1483,336,-1078,2313,-396,2025-11-12_20-08-30,39
450,-777,-1443,1303,425,2342,2025-11-12_20-08-30,40
780,-2745,474,-2705,911,-657,2025-11-12_20-08-30,41
315,-1959,271,-903,-153,-459,2025-11-12_20-08-30,42
899,-1853,-261,-615,-169,-257,2025-11-12_20-08-30,43
-122,-1862,-649,-583,-1152,-515,2025-11-12_20-08-30,44
-271,-2615,-236,-930,-1858,-398,2025-11-12_20-08-30,45
805,-3058,-588,5395,1064,1498,2025-11-12_20-08-30,46
325,-915,-1411,1266,450,1304,2025-11-12_20-08-30,47
1084,-2678,239,-2789,1472,-486,2025-11-12_20-08-30,48
321,-1984,-473,-771,-152,-280,2025-11-12_20-08-30,49
212,-2027,-426,-516,354,-161,2025-11-12_20-08-30,50
3356,-1763,73,138,-1855,403,2025-11-12_20-08-30,51
1014,-1612,-1086,2862,-1873,625,2025-11-12_20-08-30,52
745,-2621,29,-3053,679,-785,2025-11-12_20-08-30,53
76,-1867,112,-1091,296,-354,2025-11-12_20-08-30,54
429,-1946,-162,-700,417,-167,2025-11-12_20-08-30,55
-652,-2260,-536,-355,-2643,-876,2025-11-12_20-08-30,56
614,-1721,-575,-1930,1577,-128,2025-11-12_20-09-30,0
879,-891,-1259,4405,722,2032,2025-11-12_20-09-30,1
333,-1214,-1060,153,1054,471,2025-11-12_20-09-30,2
930,-2691,404,-2872,242,-601,2025-11-12_20-09-30,3
110,-1847,103,-1250,119,-373,2025-11-12_20-09-30,4
296,-1748,-14,-697,34,-314,2025-11-12_20-09-30,5
-142,-1837,-342,606,-1226,372,2025-11-12_20-09-30,6
879,-1462,-1286,3022,-859,1193,2025-11-12_20-09-30,7
762,-2198,-1727,-2558,2788,-35,2025-11-12_20-09-30,8
-204,-1856,-177,-1360,-31,-535,2025-11-12_20-09-30,9
397,-1834,-285,-405,-170,-180,2025-11-12_20-09-30,10
-208,-2238,-502,-135,-1149,-184,2025-11-12_20-09-30,11
446,-2194,-1520,-2115,1586,-522,2025-11-12_20-09-30,12
-76,-856,-257,-1860,1342,-205,2025-11-12_20-09-30,13
602,-753,-1487,4830,1576,2113,2025-11-12_20-09-30,14
389,-995,-1082,1726,-878,1123,2025-11-12_20-09-30,15
912,-3529,230,-3696,870,-60,2025-11-12_20-09-30,16
204,-1765,-348,-1034,886,-224,2025-11-12_20-09-30,17
109,-1857,-95,-620,380,-422,2025-11-12_20-09-30,18
1314,-2195,-365,-962,968,21,2025-11-12_20-09-30,19
1340,-3495,2096,-1739,-2862,-439,2025-11-12_20-09-30,20
829,-2297,-1011,5355,-315,1504,2025-11-12_20-09-30,21
655,-680,-1617,2141,-721,851,2025-11-12_20-09-30,22
746,-3002,153,-3589,1092,-438,2025-11-12_20-09-30,23
-75,-1951,-324,-1205,1210,-28,2025-11-12_20-09-30,24
398,-1867,-223,-556,237,4,2025-11-12_20-09-30,25
439,-1728,-501,-810,156,-326,2025-11-12_20-09-30,26
-1436,-1846,-333,-1707,5949,1301,2025-11-12_20-09-30,27
217,-2087,-1273,104,-662,-180,2025-11-12_20-09-30,28
993,-2691,-942,-1699,239,-659,2025-11-12_20-09-30,29
187,-1876,-142,-428,417,-165,2025-11-12_20-09-30,30
599,-1892,-773,-613,-438,-447,2025-11-12_20-09-30,31
1077,-2113,-1520,-952,-2553,-248,2025-11-12_20-09-30,32
1556,-2218,-1603,6283,-632,1380,2025-11-12_20-09-30,33
408,-865,-1583,1928,-1341,418,2025-11-12_20-09-30,34
830,-3761,799,-3648,1082,-742,2025-11-12_20-09-30,35
-6,-1815,9,-833,537,-164,2025-11-12_20-09-30,36
216,-1951,-317,-392,45,-178,2025-11-12_20-09-30,37
-900,-1826,-689,-333,-740,-100,2025-11-12_20-09-30,38
-463,-1363,316,-958,2193,-376,2025-11-12_20-09-30,39
430,-657,-1423,1283,405,2322,2025-11-12_20-09-30,40
760,-2625,454,-2685,891,-637,2025-11-12_20-09-30,41
295,-1839,251,-783,-133,-439,2025-11-12_20-09-30,42
879,-1733,-241,-495,-149,-237,2025-11-12_20-09-30,43
-142,-1742,-629,-463,-1032,-495,2025-11-12_20-09-30,44
-291,-2495,-216,-810,-1738,-378,2025-11-12_20-09-30,45
785,-2938,-568,5275,1044,1478,2025-11-12_20-09-30,46
305,-795,-1391,1146,430,1284,2025-11-12_20-09-30,47
1064,-2558,219,-2669,1452,-466,2025-11-12_20-09-30,48
301,-1864,-453,-651,-132,-260,2025-11-12_20-09-30,49
192,-1907,-406,-396,334,-141,2025-11-12_20-09-30,50
3336,-1643,53,108,-1735,393,2025-11-12_20-09-30,51
1004,-1492,-1066,2742,-1753,605,2025-11-12_20-09-30,52
725,-2501,9,-2933,659,-765,2025-11-12_20-09-30,53
56,-1747,92,-971,286,-334,2025-11-12_20-09-30,54
409,-1826,-142,-580,397,-147,2025-11-12_20-09-30,55
-662,-2140,-516,-235,-2523,-866,2025-11-12_20-09-30,56
700,-730,-590,-2000,1580,-130,2025-11-12_20-10-30,0
970,-880,-1260,4500,730,2030,2025-11-12_20-10-30,1
430,-1220,-1080,160,1060,480,2025-11-12_20-10-30,2
1030,-2790,410,-2970,250,-620,2025-11-12_20-10-30,3
120,-1940,100,-1350,120,-380,2025-11-12_20-10-30,4
300,-1840,0,-790,30,-320,2025-11-12_20-10-30,5
-130,-1930,-340,700,-1320,380,2025-11-12_20-10-30,6
970,-1560,-1280,3120,-850,1190,2025-11-12_20-10-30,7
760,-2290,-1720,-2650,2880,-30,2025-11-12_20-10-30,8
-200,-1950,-170,-1460,-30,-530,2025-11-12_20-10-30,9
390,-1930,-280,-500,-170,-180,2025-11-12_20-10-30,10
-200,-2330,-500,-230,-1240,-180,2025-11-12_20-10-30,11
440,-2290,-1520,-2210,1680,-520,2025-11-12_20-10-30,12
-70,-950,-250,-1960,1440,-200,2025-11-12_20-10-30,13
600,-850,-1480,4930,1670,2110,2025-11-12_20-10-30,14
380,-1090,-1080,1820,-970,1120,2025-11-12_20-10-30,15
910,-3620,230,-3790,970,-60,2025-11-12_20-10-30,16
200,-1860,-340,-1130,980,-220,2025-11-12_20-10-30,17
100,-1950,-90,-720,480,-420,2025-11-12_20-10-30,18
1310,-2290,-360,-1060,1060,20,2025-11-12_20-10-30,19
1340,-3590,2090,-1830,-2960,-430,2025-11-12_20-10-30,20
820,-2390,-1010,5450,-310,1500,2025-11-12_20-10-30,21
650,-780,-1610,2240,-720,850,2025-11-12_20-10-30,22
740,-3090,150,-3680,1090,-430,2025-11-12_20-10-30,23
-70,-2050,-320,-1300,1310,-20,2025-11-12_20-10-30,24
390,-1960,-220,-650,230,0,2025-11-12_20-10-30,25
430,-1820,-500,-910,150,-320,2025-11-12_20-10-30,26
-1430,-1940,-330,-1800,6940,1300,2025-11-12_20-10-30,27
210,-2180,-1270,110,-660,-180,2025-11-12_20-10-30,28
990,-2790,-940,-1790,230,-650,2025-11-12_20-10-30,29
190,-1970,-140,-520,410,-160,2025-11-12_20-10-30,30
590,-1990,-770,-710,-430,-440,2025-11-12_20-10-30,31
1070,-2210,-1520,-1050,-2650,-240,2025-11-12_20-10-30,32
1550,-2310,-1600,6380,-630,1380,2025-11-12_20-10-30,33
400,-960,-1580,2020,-1340,410,2025-11-12_20-10-30,34
830,-3860,790,-3740,1080,-740,2025-11-12_20-10-30,35
0,-1910,10,-930,530,-160,2025-11-12_20-10-30,36
210,-2050,-310,-490,40,-170,2025-11-12_20-10-30,37
-900,-1920,-680,-430,-740,-100,2025-11-12_20-10-30,38
-460,-1460,310,-1050,2290,-370,2025-11-12_20-10-30,39
430,-750,-1420,1380,400,2320,2025-11-12_20-10-30,40
760,-2720,450,-2780,890,-630,2025-11-12_20-10-30,41
290,-1930,250,-880,-130,-430,2025-11-12_20-10-30,42
870,-1830,-240,-590,-140,-230,2025-11-12_20-10-30,43
-140,-1840,-620,-560,-1130,-490,2025-11-12_20-10-30,44
-290,-2590,-210,-910,-1830,-370,2025-11-12_20-10-30,45
780,-3030,-560,5370,1040,1470,2025-11-12_20-10-30,46
300,-890,-1390,1240,430,1280,2025-11-12_20-10-30,47
1060,-2650,210,-2760,1450,-460,2025-11-12_20-10-30,48
300,-1960,-450,-750,-130,-260,2025-11-12_20-10-30,49
190,-2000,-400,-490,330,-140,2025-11-12_20-10-30,50
3330,-1740,50,110,-1830,390,2025-11-12_20-10-30,51
1000,-1590,-1060,2840,-1850,600,2025-11-12_20-10-30,52
720,-2600,10,-3030,650,-760,2025-11-12_20-10-30,53
50,-1840,90,-1070,280,-330,2025-11-12_20-10-30,54
400,-1920,-140,-680,390,-140,2025-11-12_20-10-30,55
-660,-2240,-510,-330,-2620,-860,2025-11-12_20-10-30,56
692,-1860,-195,-348,35,-244,2025-11-15_11-47-03,0
351,-1627,-47,-1001,984,-673,2025-11-15_11-47-03,1
628,-1924,-506,-1226,-2119,-625,2025-11-15_11-47-03,2
220,-1937,-422,-369,376,-50,2025-11-15_11-47-03,3
549,-1924,-499,2275,1078,829,2025-11-15_11-47-03,4
89,-2803,-720,-1020,-315,202,2025-11-15_11-47-03,5
442,-1971,-473,13,-994,-349,2025-11-15_11-47-03,6
65,-1518,-1098,1260,1722,-78,2025-11-15_11-47-03,7
560,-1890,-395,-505,188,-254,2025-11-15_11-47-03,8
229,-1540,112,-871,783,-200,2025-11-15_11-47-03,9
335,-2082,-269,-997,-2477,-827,2025-11-15_11-47-03,10
378,-1937,-80,-353,-464,-281,2025-11-15_11-47-03,11
-8,-1556,182,1654,1120,153,2025-11-15_11-47-03,12
56,-2474,-325,-1550,-525,250,2025-11-15_11-47-03,13
405,-1960,-391,-359,-47,-369,2025-11-15_11-47-03,14
297,-1724,67,2694,35,646,2025-11-15_11-47-03,15
-195,-2041,-46,-1523,-340,80,2025-11-15_11-47-03,16
538,-1928,-400,-690,976,-502,2025-11-15_11-47-03,17
-31,-2315,-581,4020,317,1205,2025-11-15_11-47-03,18
729,-2193,112,-1069,-931,156,2025-11-15_11-47-03,19
1689,-1666,-451,-456,-1342,-298,2025-11-15_11-47-03,20
785,-1399,-1037,2022,1565,943,2025-11-15_11-47-03,21
415,-1982,-697,-370,190,105,2025-11-15_11-47-03,22
90,-1281,19,-565,1325,-583,2025-11-15_11-47-03,23
110,-2295,-265,-1188,-508,331,2025-11-15_11-47-03,24
486,-1945,-336,-887,1669,-590,2025-11-15_11-47-03,25
273,-2255,-815,3698,-152,1269,2025-11-15_11-47-03,26
537,-1930,-735,-596,-235,-49,2025-11-15_11-47-03,27
40,-2618,-119,-1369,-1399,-636,2025-11-15_11-47-03,28
2,-1162,-1178,744,70,-697,2025-11-15_11-47-03,29
436,-1866,-25,-308,215,-229,2025-11-15_11-47-03,30
223,-1596,-151,-884,1324,-489,2025-11-15_11-47-03,31
431,-2294,53,-1409,-1889,-421,2025-11-15_11-47-03,32
520,-1891,-255,-411,-351,-207,2025-11-15_11-47-03,33
227,-1638,-60,-953,1449,-560,2025-11-15_11-47-03,34
1028,-2007,-1552,-1669,-71,-1031,2025-11-15_11-47-03,35
452,-1882,-294,-388,99,-230,2025-11-15_11-47-03,36
-1485,-4183,871,-1205,2799,-470,2025-11-15_11-47-03,37
885,-1242,-841,812,807,637,2025-11-15_11-47-03,38
415,-1967,-304,-295,263,-219,2025-11-15_11-47-03,39
680,-1880,-215,2697,434,157,2025-11-15_11-47-03,40
275,-1969,-494,-1103,-28,321,2025-11-15_11-47-03,41
355,-1908,-608,-346,-1513,-323,2025-11-15_11-47-03,42
-282,-1474,-1507,3036,-526,-825,2025-11-15_11-47-03,43
619,-1916,-194,-582,-82,-192,2025-11-15_11-47-03,44
56,-1586,142,-443,624,-260,2025-11-15_11-47-03,45
-126,-2874,-336,-1559,-716,78,2025-11-15_11-47-03,46
212,-2046,-238,-158,-383,-341,2025-11-15_11-47-03,47
217,-2072,-664,3572,205,1427,2025-11-15_11-47-03,48
488,-2043,-508,-736,-527,54,2025-11-15_11-47-03,49
2091,-1834,-935,-1050,-1123,-879,2025-11-15_11-47-03,50
47,-1130,-1171,1015,1064,-447,2025-11-15_11-47-03,51
419,-1976,-129,-361,24,-193,2025-11-15_11-47-03,52
-164,-1427,156,-120,1255,-186,2025-11-15_11-47-03,53
45,-2425,-404,-1671,-1147,-240,2025-11-15_11-47-03,54
622,-1932,-266,-185,159,-295,2025-11-15_11-47-03,55
95,-2227,-372,3824,682,1416,2025-11-15_11-47-03,56
590,-2413,-721,-1051,71,240,2025-11-15_11-48-03,0
533,-1952,-502,-746,1261,-418,2025-11-15_11-48-03,1
574,-1577,-1048,2662,824,306,2025-11-15_11-48-03,2
556,-1963,-352,-369,33,-80,2025-11-15_11-48-03,3
238,-1634,-100,-1261,1772,-444,2025-11-15_11-48-03,4
97,-2575,-232,-1207,-1279,43,2025-11-15_11-48-03,5
141,-2019,-281,-427,533,-388,2025-11-15_11-48-03,6
307,-1611,-1192,3072,865,130,2025-11-15_11-48-03,7
500,-1903,-314,-480,106,-211,2025-11-15_11-48-03,8
355,-1653,-269,-1462,1924,-695,2025-11-15_11-48-03,9
38,-2521,-165,-1546,-611,167,2025-11-15_11-48-03,10
1306,-1785,-300,-736,214,-335,2025-11-15_11-48-03,11
378,-1580,-1111,3096,956,23,2025-11-15_11-48-03,12
609,-1924,-412,-513,117,-196,2025-11-15_11-48-03,13
359,-1880,-68,1855,1496,6,2025-11-15_11-48-03,14
254,-2020,-124,-851,-105,213,2025-11-15_11-48-03,15
-956,-3899,-85,-2005,4116,-954,2025-11-15_11-48-03,16
404,-1729,-952,-163,-552,-10,2025-11-15_11-48-03,17
1003,-1882,-645,-113,196,89,2025-11-15_11-48-03,18
-22,-2157,-412,3108,-276,911,2025-11-15_11-48-03,19
657,-1835,-454,-647,-734,-284,2025-11-15_11-48-03,20
1283,-2216,-1096,-1001,-723,-900,2025-11-15_11-48-03,21
-83,-1722,-1030,-20,384,-285,2025-11-15_11-48-03,22
481,-1901,-226,-149,-237,-205,2025-11-15_11-48-03,23
182,-1782,24,2432,723,315,2025-11-15_11-48-03,24
370,-1996,-567,-971,-430,57,2025-11-15_11-48-03,25
1643,-2167,-1250,-1201,165,-788,2025-11-15_11-48-03,26
987,-1964,-1492,-1392,477,-517,2025-11-15_11-48-03,27
420,-1929,-260,-195,-372,-157,2025-11-15_11-48-03,28
-187,-2121,-106,3072,74,954,2025-11-15_11-48-03,29
439,-2072,-372,-1028,-310,18,2025-11-15_11-48-03,30
744,-2212,-776,-1004,1021,-872,2025-11-15_11-48-03,31
1066,-1902,-1448,-1318,81,-720,2025-11-15_11-48-03,32
179,-1965,-283,-646,1205,-294,2025-11-15_11-48-03,33
444,-1940,-1013,2598,1683,1360,2025-11-15_11-48-03,34
464,-1916,-545,-548,-128,-14,2025-11-15_11-48-03,35
318,-1625,-2,-660,1192,-492,2025-11-15_11-48-03,36
170,-2354,-255,-1584,-225,180,2025-11-15_11-48-03,37
574,-1930,-521,-603,1188,-414,2025-11-15_11-48-03,38
-82,-1593,-1433,2768,-831,-663,2025-11-15_11-48-03,39
535,-1956,-244,-463,130,-249,2025-11-15_11-48-03,40
181,-1654,-33,161,512,-250,2025-11-15_11-48-03,41
259,-2474,-296,-1462,-869,105,2025-11-15_11-48-03,42
523,-1961,-140,-356,-296,-342,2025-11-15_11-48-03,43
27,-1381,-1274,2057,546,-85,2025-11-15_11-48-03,44
589,-1926,-389,-182,-2,-204,2025-11-15_11-48-03,45
522,-1487,465,1086,-230,-290,2025-11-15_11-48-03,46
228,-2025,-503,-1224,-19,135,2025-11-15_11-48-03,47
236,-2145,-806,-392,-1985,-330,2025-11-15_11-48-03,48
78,-1165,-1200,1102,-66,-619,2025-11-15_11-48-03,49
481,-1952,-299,-179,24,-141,2025-11-15_11-48-03,50
669,-2065,-649,2645,1423,851,2025-11-15_11-48-03,51
340,-1954,-531,-142,272,-81,2025-11-15_11-48-03,52
466,-1760,40,1149,1792,-86,2025-11-15_11-48-03,53
413,-1956,-588,-703,-11,247,2025-11-15_11-48-03,54
112,-1900,-680,-2066,3751,-572,2025-11-15_11-48-03,55
-127,-2077,-697,-1046,-1643,-421,2025-11-15_11-48-03,56
398,-1851,-675,-777,21,-268,2025-11-15_11-49-04,0
-713,-2215,-704,-1728,-3,-1243,2025-11-15_11-49-04,1
335,-1529,-1081,2451,230,-393,2025-11-15_11-49-04,2
491,-1962,-92,-683,20,-108,2025-11-15_11-49-04,3
-74,-2181,2583,-1501,971,-1032,2025-11-15_11-49-04,4
218,-1384,-1195,1023,726,-537,2025-11-15_11-49-04,5
596,-1953,-328,-482,59,-244,2025-11-15_11-49-04,6
409,-1554,-123,-891,1427,-307,2025-11-15_11-49-04,7
564,-2392,-563,-715,-2113,-165,2025-11-15_11-49-04,8
701,-1937,-561,-429,-389,-345,2025-11-15_11-49-04,9
46,-1303,-1080,1981,-747,-669,2025-11-15_11-49-04,10
484,-1920,41,-512,234,-200,2025-11-15_11-49-04,11
35,-1480,380,957,1504,31,2025-11-15_11-49-04,12
246,-2174,-444,-1226,-1051,155,2025-11-15_11-49-04,13
424,-1972,-171,-537,188,-361,2025-11-15_11-49-04,14
159,-1943,-1025,3432,1312,-108,2025-11-15_11-49-04,15
446,-1919,-393,-534,72,-214,2025-11-15_11-49-04,16
202,-1989,-1633,-2409,3776,-473,2025-11-15_11-49-04,17
682,-1976,-1059,-572,-630,-794,2025-11-15_11-49-04,18
579,-1903,-90,-321,-294,-288,2025-11-15_11-49-04,19
-8,-1724,168,2569,-87,599,2025-11-15_11-49-04,20
280,-2605,-407,-1164,-520,67,2025-11-15_11-49-04,21
-221,-2142,-242,-209,-1194,-745,2025-11-15_11-49-04,22
202,-1584,-1072,2639,1341,728,2025-11-15_11-49-04,23
265,-1947,-209,-704,605,-141,2025-11-15_11-49-04,24
331,-1667,-338,-342,2276,-487,2025-11-15_11-49-04,25
145,-2466,-22,-1730,-1139,58,2025-11-15_11-49-04,26
423,-2000,-328,-500,1410,-424,2025-11-15_11-49-04,27
441,-1862,-1177,1709,2035,448,2025-11-15_11-49-04,28
473,-2001,-93,-415,164,-140,2025-11-15_11-49-04,29
-651,-3536,2246,-697,717,-974,2025-11-15_11-49-04,30
820,-1844,-868,-867,-1759,-857,2025-11-15_11-49-04,31
448,-1924,-206,-213,-261,-220,2025-11-15_11-49-04,32
245,-1833,200,2970,273,600,2025-11-15_11-49-04,33
526,-2530,-940,-1169,-235,22,2025-11-15_11-49-04,34
347,-1894,-752,-679,-131,-340,2025-11-15_11-49-04,35
324,-1776,-1351,3344,1205,288,2025-11-15_11-49-04,36
563,-1901,-289,-644,-9,-153,2025-11-15_11-49-04,37
-402,-1984,-789,-1743,-168,-1183,2025-11-15_11-49-04,38
43,-1657,-1175,-49,471,-762,2025-11-15_11-49-04,39
513,-1880,-336,-287,-33,-197,2025-11-15_11-49-04,40
208,-1343,64,-765,1426,-478,2025-11-15_11-49-04,41
55,-2481,-5,-2050,-17,-69,2025-11-15_11-49-04,42
-876,-2878,-1638,-2566,4364,-843,2025-11-15_11-49-04,43
210,-1884,-187,-1366,-1216,-144,2025-11-15_11-49-04,44
755,-1961,-462,-363,262,-329,2025-11-15_11-49-04,45
113,-2113,-178,3631,152,801,2025-11-15_11-49-04,46
619,-2320,-215,-944,-921,245,2025-11-15_11-49-04,47
478,-1915,-410,-618,-599,-317,2025-11-15_11-49-04,48
135,-1576,-943,2768,742,164,2025-11-15_11-49-04,49
503,-1966,-286,-815,237,-155,2025-11-15_11-49-04,50
989,-1464,-1125,-1481,-1579,-724,2025-11-15_11-49-04,51
126,-1880,-1022,3421,408,-143,2025-11-15_11-49-04,52
549,-2004,-618,-720,168,-58,2025-11-15_11-49-04,53
870,-1951,-1179,-1403,-242,-723,2025-11-15_11-49-04,54
137,-1264,-1250,863,551,-485,2025-11-15_11-49-04,55
589,-1921,-152,-369,-46,-207,2025-11-15_11-49-04,56
378,-1594,-256,-1145,1646,-763,2025-11-15_11-50-05,0
73,-2622,-389,-1555,-1349,-457,2025-11-15_11-50-05,1
145,-2117,-311,-417,871,-389,2025-11-15_11-50-05,2
70,-2113,-1037,3597,719,944,2025-11-15_11-50-05,3
576,-1868,-437,-709,-208,-98,2025-11-15_11-50-05,4
-1867,-2183,-745,-1694,302,-1373,2025-11-15_11-50-05,5
246,-1382,-1263,238,1168,-194,2025-11-15_11-50-05,6
610,-1900,-455,-369,-271,-158,2025-11-15_11-50-05,7
318,-2043,-142,3400,311,725,2025-11-15_11-50-05,8
472,-2033,-407,-1133,-627,39,2025-11-15_11-50-05,9
1124,-2417,-598,-833,328,-933,2025-11-15_11-50-05,10
160,-1161,-1334,1496,289,-780,2025-11-15_11-50-05,11
649,-1889,-184,-343,65,-199,2025-11-15_11-50-05,12
183,-1666,211,774,249,-207,2025-11-15_11-50-05,13
414,-2127,-881,176,-2938,-285,2025-11-15_11-50-05,14
624,-2046,-719,-1267,682,-837,2025-11-15_11-50-05,15
562,-1577,-1327,-700,-90,-278,2025-11-15_11-50-05,16
424,-1961,-441,-189,-246,-226,2025-11-15_11-50-05,17
265,-1912,-154,2482,1631,783,2025-11-15_11-50-05,18
531,-2127,-276,-1207,-1031,137,2025-11-15_11-50-05,19
32,-2145,-705,-1000,-363,-278,2025-11-15_11-50-05,20
-164,-2349,-623,3061,-322,307,2025-11-15_11-50-05,21
477,-2001,-750,-853,264,-200,2025-11-15_11-50-05,22
121,-1747,-1545,-2451,4339,-208,2025-11-15_11-50-05,23
690,-1406,-1252,-897,342,-322,2025-11-15_11-50-05,24
460,-1920,-125,-401,0,-267,2025-11-15_11-50-05,25
116,-1533,202,1299,1469,184,2025-11-15_11-50-05,26
106,-2349,-25,-1814,-928,-112,2025-11-15_11-50-05,27
-16,-2085,-445,-273,341,-252,2025-11-15_11-50-05,28
594,-2203,-458,3153,2579,1443,2025-11-15_11-50-05,29
371,-1913,-169,-586,-62,0,2025-11-15_11-50-05,30
144,-2388,-250,-2417,4923,-51,2025-11-15_11-50-05,31
1133,-2222,-1189,-1282,808,-199,2025-11-15_11-50-05,32
352,-1933,-454,-170,-82,-271,2025-11-15_11-50-05,33
155,-1697,46,2532,-562,608,2025-11-15_11-50-05,34
550,-2042,-539,-908,-692,-131,2025-11-15_11-50-05,35
320,-1978,-558,-706,-157,-627,2025-11-15_11-50-05,36
294,-1295,-1235,2661,518,238,2025-11-15_11-50-05,37
430,-1889,-15,-673,23,-189,2025-11-15_11-50-05,38
-1031,-2041,-896,-2302,1687,-1585,2025-11-15_11-50-05,39
160,-1084,-1423,1283,765,-422,2025-11-15_11-50-05,40
410,-1889,-450,-508,192,-141,2025-11-15_11-50-05,41
449,-1557,-194,-1316,916,-833,2025-11-15_11-50-05,42
930,-2065,-1468,-1138,-264,-828,2025-11-15_11-50-05,43
5,-1818,1227,-251,289,-201,2025-11-15_11-50-05,44
-7,-2206,-217,3701,13,696,2025-11-15_11-50-05,45
469,-2106,-860,392,-1290,467,2025-11-15_11-50-05,46
388,-2002,-314,-345,399,-302,2025-11-15_11-50-05,47
-228,-1862,-826,2415,-836,-1153,2025-11-15_11-50-05,48
501,-1861,-426,-277,-77,-231,2025-11-15_11-50-05,49
265,-1508,36,-469,784,-307,2025-11-15_11-50-05,50
196,-2565,-472,-1440,-772,64,2025-11-15_11-50-05,51
267,-2091,-235,-381,349,-367,2025-11-15_11-50-05,52
228,-2410,-538,3468,2461,826,2025-11-15_11-50-05,53
560,-1955,-636,-358,196,-172,2025-11-15_11-50-05,54
344,-1585,-393,-832,1467,-515,2025-11-15_11-50-05,55
1275,-2017,-2021,-1017,-233,-483,2025-11-15_11-50-05,56
508,-1845,-315,1821,-341,648,2025-11-15_15-12-29,0
956,-1672,-475,611,212,-294,2025-11-15_15-12-29,1
940,-1741,-450,55,-42,-632,2025-11-15_15-12-29,2
-506,-2176,-470,-886,1144,-151,2025-11-15_15-12-29,3
840,-2001,-371,2739,241,433,2025-11-15_15-12-29,4
891,-1949,-367,-1703,1778,-171,2025-11-15_15-12-29,5
540,-1942,-385,-480,193,7,2025-11-15_15-12-29,6
306,-1435,-349,1443,-2980,242,2025-11-15_15-12-29,7
231,-1912,-531,-662,-560,-787,2025-11-15_15-12-29,8
910,-1791,-98,-486,271,131,2025-11-15_15-12-29,9
424,-1945,-1137,3416,-231,326,2025-11-15_15-12-29,10
608,-2037,53,-1609,899,-202,2025-11-15_15-12-29,11
479,-1923,-263,-596,377,91,2025-11-15_15-12-29,12
293,-1634,-413,-477,-2375,137,2025-11-15_15-12-29,13
396,-1466,-858,1012,1521,950,2025-11-15_15-12-29,14
674,-1914,-447,-802,-131,-83,2025-11-15_15-12-29,15
502,-2412,-346,-1822,700,-21,2025-11-15_15-12-29,16
944,-1749,-869,3104,650,792,2025-11-15_15-12-29,17
79,-2781,88,-1543,1060,-268,2025-11-15_15-12-29,18
-47,-1944,-202,-921,184,36,2025-11-15_15-12-29,19
471,-1208,423,36,1234,340,2025-11-15_15-12-29,20
666,-2308,160,-1375,1181,-135,2025-11-15_15-12-29,21
722,-1833,-140,-679,-95,-34,2025-11-15_15-12-29,22
74,-1533,147,641,-2075,331,2025-11-15_15-12-29,23
670,-2114,31,-1231,0,-760,2025-11-15_15-12-29,24
729,-1911,-251,-611,885,111,2025-11-15_15-12-29,25
384,-2012,-1281,4040,-1815,-803,2025-11-15_15-12-29,26
787,-1839,-637,197,-153,-418,2025-11-15_15-12-29,27
1564,-1526,-341,-993,-1035,466,2025-11-15_15-12-29,28
573,-1205,-1238,483,102,855,2025-11-15_15-12-29,29
254,-1950,-117,-650,219,130,2025-11-15_15-12-29,30
834,-1351,131,501,-1054,-428,2025-11-15_15-12-29,31
1157,-2013,-640,-1442,158,-445,2025-11-15_15-12-29,32
277,-1925,-140,-590,-954,96,2025-11-15_15-12-29,33
665,-1532,-976,2554,-158,165,2025-11-15_15-12-29,34
706,-1921,-590,-402,-200,5,2025-11-15_15-12-29,35
495,-1707,-606,-1283,-2330,205,2025-11-15_15-12-29,36
375,-1470,-1176,1180,532,497,2025-11-15_15-12-29,37
505,-1924,-392,-639,-153,-7,2025-11-15_15-12-29,38
-708,-2378,-1427,-1851,1892,388,2025-11-15_15-12-29,39
719,-1472,-981,3302,667,814,2025-11-15_15-12-29,40
360,-2097,-465,-1135,409,-160,2025-11-15_15-12-29,41
882,-1674,-231,-1324,2313,147,2025-11-15_15-12-29,42
535,-1505,-1044,3706,601,922,2025-11-15_15-12-29,43
537,-1911,-584,-1058,117,-172,2025-11-15_15-12-29,44
1340,-1602,-680,-939,-1516,449,2025-11-15_15-12-29,45
1931,-839,-930,-247,503,1877,2025-11-15_15-12-29,46
320,-1945,-272,-638,86,8,2025-11-15_15-12-29,47
523,-1627,-161,-1403,-1624,151,2025-11-15_15-12-29,48
1068,-2016,-1258,-710,-407,-483,2025-11-15_15-12-29,49
241,-1928,-217,-730,527,35,2025-11-15_15-12-29,50
439,-1643,-227,-732,-1460,16,2025-11-15_15-12-29,51
749,-1603,-1601,-1434,818,470,2025-11-15_15-12-29,52
179,-1988,-185,-694,238,-57,2025-11-15_15-12-29,53
226,-1468,72,-1254,-1763,501,2025-11-15_15-12-29,54
625,-1892,-1011,3702,583,676,2025-11-15_15-12-29,55
244,-2155,-464,-1229,585,-28,2025-11-15_15-12-29,56
720,-2807,626,-2064,581,-618,2025-11-15_15-13-30,0
270,-1898,-373,-548,132,-56,2025-11-15_15-13-30,1
942,-1656,-991,3596,300,505,2025-11-15_15-13-30,2
613,-2083,-691,-1398,648,-223,2025-11-15_15-13-30,3
123,-1977,18,-342,-2066,111,2025-11-15_15-13-30,4
819,-2058,-120,3836,-142,307,2025-11-15_15-13-30,5
549,-2080,-431,-1363,881,-79,2025-11-15_15-13-30,6
757,-1925,-114,-544,-236,226,2025-11-15_15-13-30,7
809,-1375,166,2462,655,4,2025-11-15_15-13-30,8
1022,-2092,-1529,-979,99,141,2025-11-15_15-13-30,9
573,-1972,-559,-698,77,55,2025-11-15_15-13-30,10
909,-1853,45,-1675,-534,447,2025-11-15_15-13-30,11
817,-1451,-1008,3555,670,893,2025-11-15_15-13-30,12
856,-2073,-84,-1036,361,-133,2025-11-15_15-13-30,13
187,-2049,94,-1161,1724,-46,2025-11-15_15-13-30,14
526,-2073,2,2791,1828,-97,2025-11-15_15-13-30,15
175,-2524,-886,-1684,1627,24,2025-11-15_15-13-30,16
347,-1966,-152,-736,527,0,2025-11-15_15-13-30,17
313,-1310,-197,-1058,-1346,-119,2025-11-15_15-13-30,18
12,-2018,-967,-1109,1123,-565,2025-11-15_15-13-30,19
432,-1911,-293,-477,161,55,2025-11-15_15-13-30,20
275,-1924,253,-1131,-1701,311,2025-11-15_15-13-30,21
270,-1465,-1510,-1012,701,61,2025-11-15_15-13-30,22
447,-1893,-278,-777,605,65,2025-11-15_15-13-30,23
355,-1721,125,-940,-1853,17,2025-11-15_15-13-30,24
793,-1433,-1168,-862,1047,233,2025-11-15_15-13-30,25
407,-1913,-244,-831,726,-34,2025-11-15_15-13-30,26
282,-1749,-430,-1142,-2153,-33,2025-11-15_15-13-30,27
1226,-1810,-843,-4,1347,613,2025-11-15_15-13-30,28
470,-1822,-328,-936,594,155,2025-11-15_15-13-30,29
1548,-2493,-315,-383,-207,-12,2025-11-15_15-13-30,30
1082,-1495,-1009,-643,951,124,2025-11-15_15-13-30,31
208,-1954,-177,-662,201,67,2025-11-15_15-13-30,32
421,-1671,-572,-772,-3323,233,2025-11-15_15-13-30,33
-236,-2328,-142,-1603,622,-643,2025-11-15_15-13-30,34
808,-1852,-72,-539,70,167,2025-11-15_15-13-30,35
731,-1845,143,2753,371,221,2025-11-15_15-13-30,36
661,-1945,-561,219,185,-658,2025-11-15_15-13-30,37
321,-1541,-935,-1120,-426,407,2025-11-15_15-13-30,38
-32,-1129,-1505,-790,2070,411,2025-11-15_15-13-30,39
375,-1863,-164,-1195,324,110,2025-11-15_15-13-30,40
679,-1531,-408,-1596,-1459,-304,2025-11-15_15-13-30,41
612,-2268,-16,-2164,1199,-140,2025-11-15_15-13-30,42
567,-1939,-97,-447,420,121,2025-11-15_15-13-30,43
54,-1223,610,1714,-94,301,2025-11-15_15-13-30,44
1077,-2295,384,-1842,118,-492,2025-11-15_15-13-30,45
673,-1883,-179,-741,1079,103,2025-11-15_15-13-30,46
845,-2071,-484,4059,414,-262,2025-11-15_15-13-30,47
1040,-2520,-68,-1326,-229,-434,2025-11-15_15-13-30,48
595,-1896,-420,-352,-273,212,2025-11-15_15-13-30,49
1033,-2183,-633,4441,13,421,2025-11-15_15-13-30,50
582,-1834,-1409,-1195,548,-162,2025-11-15_15-13-30,51
825,-2430,-428,-911,4,252,2025-11-15_15-13-30,52
740,-978,-1063,1749,491,1469,2025-11-15_15-13-30,53
636,-1955,-943,-429,-158,48,2025-11-15_15-13-30,54
2816,-4350,2612,1011,-2034,417,2025-11-15_15-13-30,55
1311,-2901,-203,-2343,2463,540,2025-11-15_15-13-30,56
1179,-1866,209,-901,-245,389,2025-11-15_15-15-36,0
837,-1691,-721,2778,1032,591,2025-11-15_15-15-36,1
810,-2017,-565,-1037,922,-202,2025-11-15_15-15-36,2
714,-1853,-150,-849,-156,96,2025-11-15_15-15-36,3
913,-1795,-633,3155,621,90,2025-11-15_15-15-36,4
724,-1937,-478,-972,118,-250,2025-11-15_15-15-36,5
711,-1738,140,-802,-265,283,2025-11-15_15-15-36,6
966,-1659,-717,3422,978,419,2025-11-15_15-15-36,7
693,-1823,-912,-988,309,-242,2025-11-15_15-15-36,8
816,-1838,-259,-770,-183,415,2025-11-15_15-15-36,9
986,-1865,-333,3105,275,91,2025-11-15_15-15-36,10
866,-1929,-555,-1103,332,-356,2025-11-15_15-15-36,11
363,-1973,-127,-779,-20,133,2025-11-15_15-15-36,12
1466,-1868,-267,2231,2119,560,2025-11-15_15-15-36,13
568,-2001,-241,-773,693,100,2025-11-15_15-15-36,14
805,-1468,294,-870,840,15,2025-11-15_15-15-36,15
1043,-2211,-573,-1959,2145,148,2025-11-15_15-15-36,16
654,-1961,38,-422,-306,116,2025-11-15_15-15-36,17
784,-1829,-45,2709,1088,53,2025-11-15_15-15-36,18
596,-2695,-239,-1195,277,-542,2025-11-15_15-15-36,19
750,-1820,-31,-487,-842,234,2025-11-15_15-15-36,20
904,-1810,-327,3402,454,11,2025-11-15_15-15-36,21
0,0,0,0,0,0,2025-11-15_15-15-36,22
1345,-1552,-993,122,-3228,466,2025-11-15_15-15-36,23
145,-1984,-592,-947,-610,-650,2025-11-15_15-15-36,24
922,-1810,-55,-578,-193,97,2025-11-15_15-15-36,25
916,-1709,143,2618,768,297,2025-11-15_15-15-36,26
1100,-2629,445,-2153,1066,-240,2025-11-15_15-15-36,27
764,-1936,-370,-714,812,15,2025-11-15_15-15-36,28
514,-1606,619,1890,344,121,2025-11-15_15-15-36,29
751,-2718,-13,-2336,1663,-140,2025-11-15_15-15-36,30
703,-1842,71,-602,181,88,2025-11-15_15-15-36,31
984,-1362,530,1662,1630,-170,2025-11-15_15-15-36,32
819,-1763,-764,-1309,1558,32,2025-11-15_15-15-36,33
1495,-1869,-540,-856,-353,334,2025-11-15_15-15-36,34
1140,-1130,-880,1754,264,1138,2025-11-15_15-15-36,35
737,-1954,-236,-573,-127,-69,2025-11-15_15-15-36,36
546,-1747,-277,-204,-2183,668,2025-11-15_15-15-36,37
884,-2040,-902,-872,1003,-100,2025-11-15_15-15-36,38
598,-1874,63,-704,390,-7,2025-11-15_15-15-36,39
492,-1294,820,1072,906,334,2025-11-15_15-15-36,40
1172,-2090,-68,-2109,1206,-310,2025-11-15_15-15-36,41
631,-1892,46,-363,150,201,2025-11-15_15-15-36,42
763,-1310,627,1053,2181,255,2025-11-15_15-15-36,43
632,-2779,-511,-1597,1226,44,2025-11-15_15-15-36,44
534,-1941,-153,-714,295,38,2025-11-15_15-15-36,45
974,-1664,-705,4272,375,428,2025-11-15_15-15-36,46
1301,-2421,21,-1484,140,-471,2025-11-15_15-15-36,47
961,-1876,59,-767,-160,213,2025-11-15_15-15-36,48
907,-1752,266,3293,1157,-24,2025-11-15_15-15-36,49
233,-2949,-28,-2739,2606,-386,2025-11-15_15-15-36,50
644,-1847,129,-535,319,95,2025-11-15_15-15-36,51
821,-1576,-168,73,-238,-165,2025-11-15_15-16-31,0
910,-1392,-986,-1113,1155,322,2025-11-15_15-16-31,1
669,-1823,12,-502,-554,98,2025-11-15_15-16-31,2
299,-1551,110,221,-2175,661,2025-11-15_15-16-31,3
1134,-1691,-1521,-1206,499,-141,2025-11-15_15-16-31,4
589,-1819,-6,-630,-437,42,2025-11-15_15-16-31,5
3476,-3398,1490,-1679,-1566,308,2025-11-15_15-16-31,6
929,-1110,-1119,-139,104,258,2025-11-15_15-16-31,7
715,-1891,-91,-755,26,56,2025-11-15_15-16-31,8
649,-1628,-441,-1000,-2337,357,2025-11-15_15-16-31,9
1027,-1349,-1457,-1675,2159,239,2025-11-15_15-16-31,10
567,-1928,73,-720,545,-1,2025-11-15_15-16-31,11
454,-1042,1273,1560,620,335,2025-11-15_15-16-31,12
920,-2314,-695,-1610,1836,-81,2025-11-15_15-16-31,13
647,-1882,-10,-398,26,67,2025-11-15_15-16-31,14
74,-1430,420,-475,-1207,422,2025-11-15_15-16-31,15
19,-1652,-1645,2348,-1306,-802,2025-11-15_15-16-31,16
839,-1912,-481,-656,-284,-48,2025-11-15_15-16-31,17
344,-1815,427,-390,-1557,62,2025-11-15_15-16-31,18
1673,-1117,-1109,1170,422,1943,2025-11-15_15-16-31,19
593,-1906,-183,-709,-254,98,2025-11-15_15-16-31,20
2110,-1548,434,-216,-1052,-52,2025-11-15_15-16-31,21
743,-1342,-1362,2108,72,199,2025-11-15_15-16-31,22
877,-1876,-324,-772,18,15,2025-11-15_15-16-31,23
737,-2412,-1066,-1556,855,124,2025-11-15_15-16-31,24
983,-1391,-1026,2371,201,723,2025-11-15_15-16-31,25
732,-1859,-169,-880,29,-86,2025-11-15_15-16-31,26
1358,-1911,-349,-1044,-292,437,2025-11-15_15-16-31,27
1058,-1812,-661,3636,232,-438,2025-11-15_15-16-31,28
1093,-2440,635,-2960,1336,-123,2025-11-15_15-16-31,29
843,-1870,-188,-570,497,113,2025-11-15_15-16-31,30
631,-1183,408,-686,-85,-90,2025-11-15_15-16-31,31
1647,-1421,-1043,-1192,2457,1671,2025-11-15_15-16-31,32
473,-1872,25,-716,373,204,2025-11-15_15-16-31,33
570,-1132,815,-343,358,-210,2025-11-15_15-16-31,34
830,-1837,-922,-2065,4010,335,2025-11-15_15-16-31,35
672,-1880,98,-606,250,28,2025-11-15_15-16-31,36
290,-1546,650,1073,-300,540,2025-11-15_15-16-31,37
807,-2259,305,-2217,775,-379,2025-11-15_15-16-31,38
790,-1814,191,-689,149,179,2025-11-15_15-16-31,39
860,-1127,819,1048,1137,42,2025-11-15_15-16-31,40
708,-2522,-286,-2578,1872,24,2025-11-15_15-16-31,41
572,-1875,-82,-880,383,110,2025-11-15_15-16-31,42
1508,-1653,394,-877,-789,182,2025-11-15_15-16-31,43
677,-1076,-1440,1423,112,566,2025-11-15_15-16-31,44
638,-1940,-311,-549,-336,98,2025-11-15_15-16-31,45
1371,-1187,251,-526,-1048,136,2025-11-15_15-16-31,46
877,-1412,-950,-2053,2388,746,2025-11-15_15-16-31,47
606,-1938,107,-267,497,142,2025-11-15_15-16-31,48
1075,-1997,-258,3396,1229,-413,2025-11-15_15-16-31,49
732,-2100,-487,-950,214,-151,2025-11-15_15-16-31,50
1178,-1830,-79,-1070,1032,402,2025-11-15_15-16-31,51
919,-1855,-792,4395,-390,-450,2025-11-15_15-16-31,52
896,-2135,-405,-1290,271,-162,2025-11-15_15-16-31,53
577,-2021,-80,-756,-583,225,2025-11-15_15-16-31,54
1311,-1731,26,3710,-292,-373,2025-11-15_15-16-31,55
1633,-2629,294,-2331,157,-344,2025-11-15_15-16-31,56
1254,-2124,-3,-1683,1021,-143,2025-11-15_15-17-32,0
712,-1987,-195,-528,133,172,2025-11-15_15-17-32,1
1436,-1515,-735,2185,3276,268,2025-11-15_15-17-32,2
684,-1944,-404,-1265,1013,159,2025-11-15_15-17-32,3
100,-1662,6,-1634,-1378,791,2025-11-15_15-17-32,4
756,-1485,-1046,523,310,-331,2025-11-15_15-17-32,5
667,-1965,-664,-373,187,-56,2025-11-15_15-17-32,6
788,-1530,-324,-624,-1783,142,2025-11-15_15-17-32,7
483,-2198,-894,-911,1496,136,2025-11-15_15-17-32,8
902,-1862,-495,-284,199,-61,2025-11-15_15-17-32,9
395,-1427,504,-463,-244,29,2025-11-15_15-17-32,10
1053,-2260,185,-2322,1488,-53,2025-11-15_15-17-32,11
864,-1938,-303,-677,312,268,2025-11-15_15-17-32,12
1324,-1197,-869,1693,2217,1812,2025-11-15_15-17-32,13
604,-1871,-127,-548,-138,81,2025-11-15_15-17-32,14
1453,-1551,4291,-1565,-3887,786,2025-11-15_15-17-32,15
1369,-1755,-1544,-521,603,210,2025-11-15_15-17-32,16
631,-1838,-65,-461,455,86,2025-11-15_15-17-32,17
319,-1263,528,-662,85,26,2025-11-15_15-17-32,18
1766,-2707,733,-2518,-26,-292,2025-11-15_15-17-32,19
898,-1947,55,-560,-632,211,2025-11-15_15-17-32,20
1256,-1818,-162,3549,288,-173,2025-11-15_15-17-32,21
428,-2002,-693,-1162,871,54,2025-11-15_15-17-32,22
601,-1299,-628,-1072,-756,-88,2025-11-15_15-17-32,23
770,-1361,-1561,-2250,4088,992,2025-11-15_15-17-32,24
641,-1946,-10,-475,-89,232,2025-11-15_15-17-32,25
1236,-1613,-134,3094,-481,-412,2025-11-15_15-17-32,26
1011,-2043,-627,-1109,77,-273,2025-11-15_15-17-32,27
1405,-1775,-190,-1017,789,196,2025-11-15_15-17-32,28
888,-1554,-1125,3768,691,480,2025-11-15_15-17-32,29
763,-1925,-704,-865,64,-9,2025-11-15_15-17-32,30
221,-2295,-568,-1262,-494,346,2025-11-15_15-17-32,31
760,-1041,-1406,2292,-432,772,2025-11-15_15-17-32,32
615,-1908,-456,-756,264,183,2025-11-15_15-17-32,33
-1016,-1860,1603,-1264,885,671,2025-11-15_15-17-32,34
1115,-2349,402,-2029,1174,126,2025-11-15_15-17-32,35
573,-1917,-32,-809,541,106,2025-11-15_15-17-32,36
1287,-1153,330,2726,477,-461,2025-11-15_15-17-32,37
320,-2424,116,-1165,433,-462,2025-11-15_15-17-32,38
980,-1710,275,-922,-859,314,2025-11-15_15-17-32,39
1054,-2098,-418,4065,828,896,2025-11-15_15-17-32,40
806,-1822,-890,-104,-39,-168,2025-11-15_15-17-32,41
1929,-1469,32,-1303,-612,239,2025-11-15_15-17-32,42
1250,-1611,-1231,-155,-210,-306,2025-11-15_15-17-32,43
620,-1837,206,-506,296,50,2025-11-15_15-17-32,44
729,-1279,-1031,3036,2001,1084,2025-11-15_15-17-32,45
843,-1948,-275,-2027,1055,202,2025-11-15_15-17-32,46
190,-2472,-102,-502,-102,481,2025-11-15_15-17-32,47
1456,-1357,-1182,-919,698,352,2025-11-15_15-17-32,48
558,-1873,132,-506,290,-126,2025-11-15_15-17-32,49
-249,-1038,632,312,-1156,351,2025-11-15_15-17-32,50
933,-1740,-985,-954,1924,-127,2025-11-15_15-17-32,51
968,-1789,-56,-788,36,166,2025-11-15_15-17-32,52
282,-1400,865,1829,709,10,2025-11-15_15-17-32,53
1200,-2029,-382,-1303,-183,-527,2025-11-15_15-17-32,54
681,-1854,-236,-712,-576,262,2025-11-15_15-17-32,55
771,-1703,-755,3688,2221,443,2025-11-15_15-17-32,56
795,-2062,-508,-2103,1673,-290,2025-11-15_15-18-33,0
739,-1853,111,-512,-266,126,2025-11-15_15-18-33,1
819,-1611,338,3641,962,63,2025-11-15_15-18-33,2
1442,-2389,-58,-1760,-665,-352,2025-11-15_15-18-33,3
726,-1827,212,-552,-479,270,2025-11-15_15-18-33,4
877,-1701,-840,4117,1677,422,2025-11-15_15-18-33,5
700,-1975,-634,-1728,1068,93,2025-11-15_15-18-33,6
499,-2146,-143,-663,-627,-104,2025-11-15_15-18-33,7
1246,-1153,-1045,2201,2998,2058,2025-11-15_15-18-33,8
639,-1835,-99,-900,-100,-29,2025-11-15_15-18-33,9
662,287,-1407,-1275,-866,138,2025-11-15_15-18-33,10
573,-1269,-1490,1435,-1342,-49,2025-11-15_15-18-33,11
640,-1766,88,-1025,-425,187,2025-11-15_15-18-33,12
-2336,-1361,498,-1910,-263,166,2025-11-15_15-18-33,13
1042,-1117,-945,1512,-663,1199,2025-11-15_15-18-33,14
862,-1858,-320,-839,-97,79,2025-11-15_15-18-33,15
-2225,-1823,153,-1696,-1087,536,2025-11-15_15-18-33,16
985,-1113,-1174,1548,-90,946,2025-11-15_15-18-33,17
686,-1798,-281,-1088,344,76,2025-11-15_15-18-33,18
542,-1204,561,-897,-304,9,2025-11-15_15-18-33,19
914,-1864,-1177,-1793,3561,14,2025-11-15_15-18-33,20
964,-1801,-92,-476,186,51,2025-11-15_15-18-33,21
974,-1827,-672,3969,608,-204,2025-11-15_15-18-33,22
717,-1959,22,-1225,120,-197,2025-11-15_15-18-33,23
658,-2144,-235,-798,972,442,2025-11-15_15-18-33,24
1087,-1869,-786,2246,-2149,-15,2025-11-15_15-18-33,25
692,-1768,-80,-935,-155,205,2025-11-15_15-18-33,26
842,-1399,479,-123,1069,-157,2025-11-15_15-18-33,27
1384,-2228,218,-2149,572,-57,2025-11-15_15-18-33,28
870,-1878,-294,-602,-815,279,2025-11-15_15-18-33,29
1072,-1791,-192,4072,526,266,2025-11-15_15-18-33,30
636,-2604,654,-2207,641,-652,2025-11-15_15-18-33,31
929,-1698,63,-603,-113,134,2025-11-15_15-18-33,32
488,-1532,275,-712,-1173,399,2025-11-15_15-18-33,33
1167,-1287,-1386,130,-67,207,2025-11-15_15-18-33,34
853,-1801,-103,-945,84,86,2025-11-15_15-18-33,35
-365,-2854,-1340,-1884,1871,97,2025-11-15_15-18-33,36
699,-1890,-939,3078,2024,69,2025-11-15_15-18-33,37
614,-1934,-631,-980,128,-42,2025-11-15_15-18-33,38
1650,-1850,-460,-1075,367,604,2025-11-15_15-18-33,39
1562,-1438,-976,2344,1448,1877,2025-11-15_15-18-33,40
625,-1855,-53,-769,457,-76,2025-11-15_15-18-33,41
584,-1380,544,-932,1231,-193,2025-11-15_15-18-33,42
876,-1661,-844,-1969,4103,312,2025-11-15_15-18-33,43
766,-1778,199,-603,115,66,2025-11-15_15-18-33,44
232,-1452,821,1117,-88,663,2025-11-15_15-18-33,45
691,-2045,-805,-1349,1263,-127,2025-11-15_15-18-33,46
565,-1852,162,-653,165,36,2025-11-15_15-18-33,47
334,-1406,304,-434,-1596,341,2025-11-15_15-18-33,48
1204,-1323,-1693,-576,2369,476,2025-11-15_15-18-33,49
537,-1814,92,-732,442,113,2025-11-15_15-18-33,50
526,-1403,435,-1033,1675,-52,2025-11-15_15-18-33,51
1380,-2531,167,-2521,2174,347,2025-11-15_15-18-33,52
757,-1854,-29,-943,684,141,2025-11-15_15-18-33,53
1051,-1793,195,3082,294,216,2025-11-15_15-18-33,54
1252,-2286,-57,-2143,457,-545,2025-11-15_15-18-33,55
486,-1844,-55,-882,231,-65,2025-11-15_15-18-33,56
625,-2077,-1023,-862,596,-297,2025-11-15_22-20-16,0
1153,-2110,-308,-1118,1097,-283,2025-11-15_22-20-16,1
1009,-1528,-766,3975,-341,645,2025-11-15_22-20-16,2
547,-1990,-44,-671,68,-169,2025-11-15_22-20-16,3
1678,-1927,-444,-1304,-183,278,2025-11-15_22-20-16,4
1178,-1065,-917,1646,1083,1218,2025-11-15_22-20-16,5
476,-1971,-118,-778,221,45,2025-11-15_22-20-16,6
2049,-2686,1537,-143,-217,-234,2025-11-15_22-20-16,7
825,-1352,-947,888,2404,1357,2025-11-15_22-20-16,8
525,-1917,66,-574,-205,-26,2025-11-15_22-20-16,9
5,-2312,-491,-1398,1598,241,2025-11-15_22-20-16,10
546,-1879,-827,3472,51,332,2025-11-15_22-20-16,11
276,-2468,350,-1144,655,-664,2025-11-15_22-20-16,12
444,-2141,-284,-805,-421,139,2025-11-15_22-20-16,13
677,-1924,19,2786,1388,228,2025-11-15_22-20-16,14
18,-2594,-51,-1142,929,-436,2025-11-15_22-20-16,15
234,-1887,-406,-1121,2541,-202,2025-11-15_22-20-16,16
617,-1842,-536,2600,2295,901,2025-11-15_22-20-16,17
366,-2042,-550,-1038,845,-96,2025-11-15_22-20-16,18
629,-2050,-261,-1159,792,-104,2025-11-15_22-20-16,19
811,-1233,-1031,2614,274,901,2025-11-15_22-20-16,20
578,-2066,-264,-887,-55,-211,2025-11-15_22-20-16,21
653,-2340,-422,-1596,-595,435,2025-11-15_22-20-16,22
768,-1517,-776,3967,-80,690,2025-11-15_22-20-16,23
303,-2165,-267,-1081,49,-217,2025-11-15_22-20-16,24
428,-1900,-37,-850,405,-192,2025-11-15_22-20-16,25
891,-1554,-929,3737,462,843,2025-11-15_22-20-16,26
460,-1885,-507,-1098,529,-10,2025-11-15_22-20-16,27
1247,-1925,-40,-981,459,137,2025-11-15_22-20-16,28
1281,-1310,-810,1960,1299,1615,2025-11-15_22-20-16,29
486,-1855,-359,-738,-17,-109,2025-11-15_22-20-16,30
3617,-3137,629,-408,-3675,965,2025-11-15_22-20-16,31
1051,-1653,-1211,-164,-48,81,2025-11-15_22-20-16,32
446,-1909,67,-460,-426,-22,2025-11-15_22-20-16,33
497,-1443,550,-854,-333,11,2025-11-15_22-20-16,34
554,-2050,-1115,-765,2173,466,2025-11-15_22-20-16,35
566,-1903,-153,-433,91,36,2025-11-15_22-20-16,36
615,-1642,529,2887,-258,261,2025-11-15_22-20-16,37
946,-1982,452,-1272,23,-902,2025-11-15_22-20-16,38
941,-1990,-58,-387,-1472,381,2025-11-15_22-20-16,39
784,-1723,-883,3637,-695,303,2025-11-15_22-20-16,40
1056,-2717,-498,-1685,189,-516,2025-11-15_22-20-16,41
292,-2034,-208,-471,-320,42,2025-11-15_22-20-16,42
929,-2036,300,4076,-241,-253,2025-11-15_22-20-16,43
1194,-2994,-86,-927,-769,-619,2025-11-15_22-20-16,44
496,-2098,-746,-538,-222,-91,2025-11-15_22-20-16,45
329,-1222,370,630,922,-178,2025-11-15_22-20-16,46
620,-2142,-107,-1548,828,-190,2025-11-15_22-20-16,47
519,-2026,-230,-547,-555,225,2025-11-15_22-20-16,48
1156,-1347,-770,2719,967,1420,2025-11-15_22-20-16,49
1324,-1138,-1288,-926,1030,1369,2025-11-15_22-22-11,0
568,-1841,145,-478,33,31,2025-11-15_22-22-11,1
-924,-1768,407,-1680,1129,-23,2025-11-15_22-22-11,2
606,-1288,-1213,2282,-694,370,2025-11-15_22-22-11,3
620,-2086,-394,-1041,-328,-181,2025-11-15_22-22-11,4
758,-1863,-174,-864,-174,281,2025-11-15_22-22-11,5
747,-1667,-1049,3752,362,534,2025-11-15_22-22-11,6
585,-2097,-189,-1309,387,-264,2025-11-15_22-22-11,7
269,-2145,-220,-602,-1230,468,2025-11-15_22-22-11,8
768,-1552,555,2454,2063,-119,2025-11-15_22-22-11,9
1375,-2196,-186,-2560,2406,331,2025-11-15_22-22-11,10
355,-2089,-496,-178,290,-70,2025-11-15_22-22-11,11
42,-953,1424,463,1893,-371,2025-11-15_22-22-11,12
992,-2309,-734,-734,1701,-316,2025-11-15_22-22-11,13
332,-1928,299,-393,-30,96,2025-11-15_22-22-11,14
-33,-1231,877,-362,-8,40,2025-11-15_22-22-11,15
735,-1478,-1459,-1078,1126,-15,2025-11-15_22-22-11,16
507,-1861,161,-607,264,-81,2025-11-15_22-22-11,17
322,-1590,547,1527,1722,359,2025-11-15_22-22-11,18
1307,-2453,-322,-2195,2721,-175,2025-11-15_22-22-11,19
558,-2062,-241,-783,242,130,2025-11-15_22-22-11,20
1062,-1273,-723,1742,1000,1440,2025-11-15_22-22-11,21
623,-1905,-429,-799,667,168,2025-11-15_22-22-11,22
896,-2897,1737,-606,1117,-170,2025-11-15_22-22-11,23
927,-1241,-1521,-425,346,2,2025-11-15_22-22-11,24
543,-1908,-88,-476,-289,14,2025-11-15_22-22-11,25
584,-1622,250,-146,-1145,635,2025-11-15_22-22-11,26
601,-1643,-1283,69,1310,236,2025-11-15_22-22-11,27
730,-1927,-365,-481,226,57,2025-11-15_22-22-11,28
416,-1434,656,1265,662,210,2025-11-15_22-22-11,29
1193,-2202,-295,-1254,795,-355,2025-11-15_22-22-11,30
386,-1983,-328,-684,728,-63,2025-11-15_22-22-11,31
576,-1839,-658,2846,2584,541,2025-11-15_22-22-11,32
388,-1938,-470,-1101,1146,-169,2025-11-15_22-22-11,33
486,-1613,-989,-1335,773,600,2025-11-15_22-22-11,34
921,-1449,-788,2933,574,671,2025-11-15_22-22-11,35
703,-1889,-620,-839,280,-242,2025-11-15_22-22-11,36
19,-2317,-567,-1344,-347,465,2025-11-15_22-22-11,37
1058,-1544,-896,3604,269,434,2025-11-15_22-22-11,38
741,-1867,-29,-541,-145,-67,2025-11-15_22-22-11,39
630,-2396,-963,-1608,-281,278,2025-11-15_22-22-11,40
1180,-1407,-1000,1510,1953,1952,2025-11-15_22-22-11,41
535,-1860,-302,-412,558,55,2025-11-15_22-22-11,42
513,-1778,143,-1590,137,-28,2025-11-15_22-22-11,43
722,-1825,-515,-1205,2006,-61,2025-11-15_22-22-11,44
504,-1950,-211,-679,619,15,2025-11-15_22-22-11,45
894,-1253,704,1065,845,-139,2025-11-15_22-22-11,46
1012,-2323,24,-1173,-569,-609,2025-11-15_22-22-11,47
1180,-1928,-5,-765,-480,300,2025-11-15_22-22-11,48
748,-1755,63,2636,979,179,2025-11-15_22-22-11,49
763,-2518,-190,-738,-277,-440,2025-11-15_22-22-11,50
816,-2014,-443,-692,-623,176,2025-11-15_22-22-11,51
980,-1625,-10,2377,1207,-97,2025-11-15_22-22-11,52
977,-1882,369,-1064,236,-354,2025-11-15_22-22-11,53
350,-1784,46,-1046,60,467,2025-11-15_22-22-11,54
364,-1794,-984,1521,-564,-147,2025-11-15_22-22-11,55
