ax,ay,az,gx,gy,gz,session,reading_index
879,-1804,188,-234,-50,42,2025-11-13_00-12-26,0
884,-1639,92,505,362,204,2025-11-13_00-12-26,1
1244,-1642,-331,-341,958,-20,2025-11-13_00-12-26,2
757,-1899,56,-176,-340,132,2025-11-13_00-12-26,3
1031,-1738,56,1022,498,26,2025-11-13_00-12-26,4
710,-2133,-374,-502,487,-202,2025-11-13_00-12-26,5
779,-1987,-310,-609,352,104,2025-11-13_00-12-26,6
1147,-1660,-224,400,318,48,2025-11-13_00-12-26,7
971,-1800,-109,-295,81,60,2025-11-13_00-12-26,8
931,-1693,373,-348,1433,20,2025-11-13_00-12-26,9
696,-1939,-331,-604,1015,-196,2025-11-13_00-12-26,10
784,-1858,-111,-782,316,163,2025-11-13_00-12-26,11
1140,-1745,36,1059,1077,-122,2025-11-13_00-12-26,12
987,-1778,-219,-461,308,-100,2025-11-13_00-12-26,13
922,-1600,148,425,-613,314,2025-11-13_00-12-26,14
1047,-1703,-408,-12,82,-103,2025-11-13_00-12-26,15
498,-2000,-74,-377,-511,278,2025-11-13_00-12-26,16
1035,-1783,-257,921,479,5,2025-11-13_00-12-26,17
882,-1774,350,-243,342,-34,2025-11-13_00-12-26,18
1049,-1741,165,727,19,90,2025-11-13_00-12-26,19
821,-1846,-135,-203,215,-70,2025-11-13_00-12-26,20
1095,-1662,-26,855,212,122,2025-11-13_00-12-26,21
976,-1769,-232,-280,90,-164,2025-11-13_00-12-26,22
956,-1565,213,178,-177,99,2025-11-13_00-12-26,23
1135,-1667,-150,-620,335,-243,2025-11-13_00-12-26,24
992,-1754,181,-678,827,83,2025-11-13_00-12-26,25
1084,-1714,-96,657,930,70,2025-11-13_00-12-26,26
889,-1784,-55,-409,479,-66,2025-11-13_00-12-26,27
1144,-1547,154,14,1926,97,2025-11-13_00-12-26,28
1025,-1806,-313,-803,931,-174,2025-11-13_00-12-26,29
1633,-1700,328,-350,-944,11,2025-11-13_00-12-26,30
1055,-1795,-33,-86,1118,-47,2025-11-13_00-12-26,31
921,-1758,57,-314,230,-72,2025-11-13_00-12-26,32
930,-1670,-43,-74,-27,141,2025-11-13_00-12-26,33
999,-1604,9,30,666,-188,2025-11-13_00-12-26,34
965,-1709,-67,-189,-555,54,2025-11-13_00-12-26,35
820,-1807,-58,1086,-422,173,2025-11-13_00-12-26,36
731,-1991,-248,-440,311,-102,2025-11-13_00-12-26,37
989,-1722,151,546,-228,156,2025-11-13_00-12-26,38
1464,-2035,-459,-687,828,-167,2025-11-13_00-12-26,39
967,-1684,246,-252,-675,148,2025-11-13_00-12-26,40
748,-1931,-275,-559,1124,-282,2025-11-13_00-12-26,41
931,-1676,184,-23,786,55,2025-11-13_00-12-26,42
1014,-1760,-197,-432,-23,-180,2025-11-13_00-12-26,43
1006,-1636,180,2,-681,146,2025-11-13_00-12-26,44
848,-1998,-318,-696,1122,-312,2025-11-13_00-12-26,45
1166,-1656,12,639,718,0,2025-11-13_00-12-26,46
800,-1866,-227,-264,394,-82,2025-11-13_00-12-26,47
1276,-1701,-40,603,1140,93,2025-11-13_00-12-26,48
779,-1850,37,-70,358,-146,2025-11-13_00-12-26,49
1098,-1533,147,8,1525,-30,2025-11-13_00-12-26,50
977,-1997,-272,-572,1028,-258,2025-11-13_00-12-26,51
1819,-1918,458,-524,-403,86,2025-11-13_00-12-26,52
691,-1571,-472,-699,75,-99,2025-11-13_00-12-26,53
520,-1997,134,-332,-394,321,2025-11-13_00-12-26,54
1031,-1688,-162,373,700,-55,2025-11-13_00-12-26,55
880,-1831,-158,-475,-236,284,2025-11-13_00-12-26,56
1151,-1796,-157,1112,649,93,2025-11-13_00-13-27,0
599,-1900,-1,-369,399,-13,2025-11-13_00-13-27,1
1124,-1802,-203,1062,344,-16,2025-11-13_00-13-27,2
788,-1916,-555,-275,216,-12,2025-11-13_00-13-27,3
1128,-1789,-37,1107,584,178,2025-11-13_00-13-27,4
791,-1851,-123,-263,105,88,2025-11-13_00-13-27,5
1195,-1599,-370,171,1431,311,2025-11-13_00-13-27,6
831,-1846,124,-404,73,287,2025-11-13_00-13-27,7
1140,-2028,-502,-994,1361,-308,2025-11-13_00-13-27,8
1021,-1570,352,-351,934,45,2025-11-13_00-13-27,9
560,-1910,-148,-414,537,-45,2025-11-13_00-13-27,10
1201,-1743,-65,941,1063,-115,2025-11-13_00-13-27,11
653,-1901,145,-228,152,84,2025-11-13_00-13-27,12
1097,-1608,-449,-488,192,-106,2025-11-13_00-13-27,13
1070,-1820,-111,-678,382,354,2025-11-13_00-13-27,14
909,-1776,-290,574,332,-92,2025-11-13_00-13-27,15
1014,-1814,-136,-607,-116,482,2025-11-13_00-13-27,16
986,-1658,-673,-478,391,-161,2025-11-13_00-13-27,17
789,-1793,69,-497,446,202,2025-11-13_00-13-27,18
909,-1627,-507,-688,202,-214,2025-11-13_00-13-27,19
1278,-1871,711,36,-504,32,2025-11-13_00-13-27,20
838,-1534,-517,-695,539,-310,2025-11-13_00-13-27,21
798,-1621,288,-198,-550,136,2025-11-13_00-13-27,22
802,-1865,-471,-1100,869,-228,2025-11-13_00-13-27,23
813,-1699,211,-230,-891,180,2025-11-13_00-13-27,24
1275,-2018,-375,-704,683,-175,2025-11-13_00-13-27,25
901,-1595,125,-85,1203,-56,2025-11-13_00-13-27,26
623,-1984,-223,-396,496,44,2025-11-13_00-13-27,27
1334,-1684,-207,584,919,-67,2025-11-13_00-13-27,28
898,-1822,-50,-146,474,-102,2025-11-13_00-13-27,29
1283,-1668,184,469,996,204,2025-11-13_00-13-27,30
1051,-2027,-492,-848,1171,-260,2025-11-13_00-13-27,31
1096,-1632,174,459,488,119,2025-11-13_00-13-27,32
1236,-1728,-260,-636,350,-154,2025-11-13_00-13-27,33
1015,-1751,-66,-771,-126,301,2025-11-13_00-13-27,34
1152,-1718,-250,-578,744,-135,2025-11-13_00-13-27,35
795,-1625,132,54,-836,136,2025-11-13_00-13-27,36
1151,-1774,23,-1055,515,-10,2025-11-13_00-13-27,37
916,-1901,-59,-638,-23,371,2025-11-13_00-13-27,38
1163,-1760,-281,-709,775,-184,2025-11-13_00-13-27,39
1059,-1638,272,-121,-210,213,2025-11-13_00-13-27,40
667,-1881,-397,-944,1238,-208,2025-11-13_00-13-27,41
928,-1608,183,224,-430,308,2025-11-13_00-13-27,42
849,-1800,-131,-427,399,-150,2025-11-13_00-13-27,43
1077,-1619,26,1050,443,34,2025-11-13_00-13-27,44
904,-1774,60,-318,98,-85,2025-11-13_00-13-27,45
1160,-1745,22,856,593,71,2025-11-13_00-13-27,46
931,-1723,256,-239,228,-63,2025-11-13_00-13-27,47
1226,-1701,92,777,1316,183,2025-11-13_00-13-27,48
901,-1829,-109,-242,430,-78,2025-11-13_00-13-27,49
1206,-1713,32,372,1026,121,2025-11-13_00-13-27,50
749,-1848,92,-296,414,47,2025-11-13_00-13-27,51
1051,-1810,-141,-754,1421,93,2025-11-13_00-13-27,52
916,-1818,-101,-353,-164,236,2025-11-13_00-13-27,53
1058,-1759,-276,-114,205,23,2025-11-13_00-13-27,54
777,-1877,108,-278,-398,252,2025-11-13_00-13-27,55
1044,-1729,-319,-161,223,29,2025-11-13_00-13-27,56
1003,-1555,306,330,-436,221,2025-11-13_00-14-27,0
1550,-2206,-311,-438,899,-503,2025-11-13_00-14-27,1
905,-1652,272,454,-247,33,2025-11-13_00-14-27,2
1317,-2126,-276,-695,1210,-351,2025-11-13_00-14-27,3
509,-1993,-339,-489,-386,493,2025-11-13_00-14-27,4
1176,-1605,-48,-313,286,-208,2025-11-13_00-14-27,5
1029,-1719,269,206,214,160,2025-11-13_00-14-27,6
970,-1766,-217,-494,384,-137,2025-11-13_00-14-27,7
1036,-1665,187,835,720,202,2025-11-13_00-14-27,8
885,-1812,-250,-452,555,-111,2025-11-13_00-14-27,9
1084,-1715,159,1208,-27,103,2025-11-13_00-14-27,10
843,-1831,-428,-583,704,-28,2025-11-13_00-14-27,11
883,-1641,-352,-962,3167,762,2025-11-13_00-14-27,12
903,-1643,192,-264,1885,-128,2025-11-13_00-14-27,13
787,-2441,-860,-148,749,-135,2025-11-13_00-14-27,14
858,-1615,165,-199,-640,172,2025-11-13_00-14-27,15
1041,-1702,-440,-541,26,-142,2025-11-13_00-14-27,16
896,-1609,242,138,-97,-23,2025-11-13_00-14-27,17
1125,-1999,-719,-451,218,-248,2025-11-13_00-14-27,18
1878,-2082,1025,-273,-1821,107,2025-11-13_00-14-27,19
879,-1604,-645,-594,-12,-38,2025-11-13_00-14-27,20
1096,-1654,147,373,412,84,2025-11-13_00-14-27,21
1305,-1642,-299,-281,-62,15,2025-11-13_00-14-27,22
1202,-1721,58,1144,674,73,2025-11-13_00-14-27,23
921,-1688,154,-403,255,-112,2025-11-13_00-14-27,24
1175,-1591,-74,323,117,202,2025-11-13_00-14-27,25
827,-1795,-40,-396,487,146,2025-11-13_00-14-27,26
995,-1844,-156,1035,347,171,2025-11-13_00-14-27,27
637,-1843,-165,-514,232,50,2025-11-13_00-14-27,28
1004,-1517,306,357,1337,19,2025-11-13_00-14-27,29
912,-2240,-160,-1385,1314,-55,2025-11-13_00-14-27,30
376,-1985,61,-551,-161,161,2025-11-13_00-14-27,31
1040,-1709,-300,744,463,170,2025-11-13_00-14-27,32
821,-1876,-273,-250,138,61,2025-11-13_00-14-27,33
1099,-1677,-228,1062,108,57,2025-11-13_00-14-27,34
950,-1817,-352,-259,150,86,2025-11-13_00-14-27,35
982,-1902,-245,1705,76,61,2025-11-13_00-14-27,36
834,-1780,-63,-390,50,21,2025-11-13_00-14-27,37
931,-1779,100,1695,-64,100,2025-11-13_00-14-27,38
720,-1866,-338,142,-808,-107,2025-11-13_00-14-27,39
656,-1961,-652,2339,-2046,-348,2025-11-13_00-14-27,40
806,-1811,-260,-635,288,-247,2025-11-13_00-14-27,41
949,-1698,164,778,918,60,2025-11-13_00-14-27,42
742,-1847,-397,-595,309,-123,2025-11-13_00-14-27,43
1041,-1543,109,574,522,144,2025-11-13_00-14-27,44
770,-1828,-367,-637,430,-156,2025-11-13_00-14-27,45
992,-1635,250,-147,1815,84,2025-11-13_00-14-27,46
385,-2025,-406,-593,1095,-279,2025-11-13_00-14-27,47
866,-1630,241,-318,226,-96,2025-11-13_00-14-27,48
1272,-1940,-287,-961,1283,-270,2025-11-13_00-14-27,49
1074,-1650,-103,296,31,39,2025-11-13_00-14-27,50
1151,-1818,153,-198,532,-211,2025-11-13_00-14-27,51
1030,-1606,156,602,337,113,2025-11-13_00-14-27,52
1040,-1987,215,-479,242,-215,2025-11-13_00-14-27,53
751,-1737,-514,-609,844,234,2025-11-13_00-14-27,54
1121,-1724,17,595,570,42,2025-11-13_00-14-27,55
607,-2394,-454,-233,794,-235,2025-11-13_00-14-27,56
1091,-1690,-68,-664,26,-193,2025-11-13_00-15-28,0
1222,-1758,-599,-199,235,70,2025-11-13_00-15-28,1
987,-1472,-90,-116,71,217,2025-11-13_00-15-28,2
1035,-1747,-127,218,516,57,2025-11-13_00-15-28,3
959,-1744,-228,-715,160,-102,2025-11-13_00-15-28,4
1090,-1584,-174,-392,6,141,2025-11-13_00-15-28,5
1141,-1607,-304,1100,-30,18,2025-11-13_00-15-28,6
919,-1745,78,-107,-103,-86,2025-11-13_00-15-28,7
737,-1909,-340,1665,-2231,315,2025-11-13_00-15-28,8
915,-1739,-316,765,-511,-100,2025-11-13_00-15-28,9
889,-1874,-319,-43,-127,3,2025-11-13_00-15-28,10
901,-1713,133,544,26,98,2025-11-13_00-15-28,11
1195,-1633,-309,-684,474,-159,2025-11-13_00-15-28,12
1115,-1754,-316,158,-105,-69,2025-11-13_00-15-28,13
1079,-1598,261,521,145,189,2025-11-13_00-15-28,14
1167,-1638,-286,19,814,-187,2025-11-13_00-15-28,15
728,-1858,-55,-169,352,-155,2025-11-13_00-15-28,16
1034,-1556,68,498,299,132,2025-11-13_00-15-28,17
1164,-1698,-29,-64,541,-20,2025-11-13_00-15-28,18
931,-1738,215,-586,793,-225,2025-11-13_00-15-28,19
783,-1611,208,-350,-228,27,2025-11-13_00-15-28,20
1148,-1664,99,345,233,84,2025-11-13_00-15-28,21
1119,-1673,-176,-258,-172,-78,2025-11-13_00-15-28,22
1009,-1625,-165,-760,162,168,2025-11-13_00-15-28,23
1076,-1730,44,282,207,76,2025-11-13_00-15-28,24
616,-1857,142,-392,145,-137,2025-11-13_00-15-28,25
780,-1946,-762,-238,-141,91,2025-11-13_00-15-28,26
1155,-1715,-6,876,694,144,2025-11-13_00-15-28,27
1151,-1662,-195,-481,80,-93,2025-11-13_00-15-28,28
1034,-1747,-160,-256,255,-124,2025-11-13_00-15-28,29
834,-1628,279,-619,635,45,2025-11-13_00-15-28,30
1141,-1655,-221,-597,2313,98,2025-11-13_00-15-28,31
818,-1706,397,-816,811,-168,2025-11-13_00-15-28,32
694,-1641,-430,-600,344,123,2025-11-13_00-15-28,33
1153,-1683,32,1019,158,108,2025-11-13_00-15-28,34
1015,-1991,150,-553,782,-343,2025-11-13_00-15-28,35
1241,-1842,-594,-347,-168,221,2025-11-13_00-15-28,36
1011,-1657,3,816,146,91,2025-11-13_00-15-28,37
1251,-1686,-233,-279,144,-178,2025-11-13_00-15-28,38
985,-1833,-388,-28,-186,-54,2025-11-13_00-15-28,39
994,-1673,36,813,239,309,2025-11-13_00-15-28,40
1007,-1795,7,883,9,45,2025-11-13_00-15-28,41
895,-2270,-347,-218,166,-202,2025-11-13_00-15-28,42
1165,-1946,-384,-377,369,-136,2025-11-13_00-15-28,43
1189,-1736,-101,680,287,219,2025-11-13_00-15-28,44
716,-1856,-80,-523,924,-127,2025-11-13_00-15-28,45
1024,-1749,-168,-156,172,57,2025-11-13_00-15-28,46
1032,-1643,-150,-712,569,-92,2025-11-13_00-15-28,47
1026,-1754,6,-31,-327,-53,2025-11-13_00-15-28,48
1131,-1804,72,423,1129,111,2025-11-13_00-15-28,49
950,-1792,-9,-813,1339,-188,2025-11-13_00-15-28,50
1410,-1645,-102,-463,645,-36,2025-11-13_00-15-28,51
1213,-1662,96,9,1619,-180,2025-11-13_00-15-28,52
809,-1849,-153,-527,735,-62,2025-11-13_00-15-28,53
974,-1625,83,132,43,174,2025-11-13_00-15-28,54
1341,-1536,-291,-885,585,51,2025-11-13_00-15-28,55
693,-2009,-435,-30,-35,41,2025-11-13_00-15-28,56
910,-1517,-34,-137,-904,359,2025-11-13_00-16-29,0
970,-1723,-238,-140,-411,-168,2025-11-13_00-16-29,1
624,-1948,-241,-308,407,14,2025-11-13_00-16-29,2
1105,-1706,-84,431,429,94,2025-11-13_00-16-29,3
789,-1968,196,-716,1195,-444,2025-11-13_00-16-29,4
922,-1957,-635,-440,40,91,2025-11-13_00-16-29,5
958,-1744,30,-56,492,85,2025-11-13_00-16-29,6
1064,-1712,71,877,-84,250,2025-11-13_00-16-29,7
1087,-1835,194,-539,-115,-168,2025-11-13_00-16-29,8
1036,-1759,-378,-81,-213,-103,2025-11-13_00-16-29,9
1053,-1623,-282,-394,-335,159,2025-11-13_00-16-29,10
974,-1759,32,1049,1364,320,2025-11-13_00-16-29,11
882,-1901,-206,-312,494,-159,2025-11-13_00-16-29,12
287,-2030,-307,-444,614,15,2025-11-13_00-16-29,13
1023,-1500,309,-109,1541,-101,2025-11-13_00-16-29,14
1164,-1606,90,256,1697,212,2025-11-13_00-16-29,15
1480,-1559,451,-1054,1083,-274,2025-11-13_00-16-29,16
699,-1914,-177,-505,-65,205,2025-11-13_00-16-29,17
878,-1512,151,366,718,47,2025-11-13_00-16-29,18
875,-1941,-169,-879,771,-292,2025-11-13_00-16-29,19
1158,-1583,184,-60,-631,-78,2025-11-13_00-16-29,20
968,-1692,-60,986,-362,129,2025-11-13_00-16-29,21
1041,-1580,-219,512,749,-16,2025-11-13_00-16-29,22
897,-1777,43,-515,617,-134,2025-11-13_00-16-29,23
1533,-1720,-664,-1895,-1076,-49,2025-11-13_00-16-29,24
1039,-1789,-62,1744,204,28,2025-11-13_00-16-29,25
1529,-2168,207,-839,614,-332,2025-11-13_00-16-29,26
987,-1899,-549,-567,-794,362,2025-11-13_00-16-29,27
778,-1847,-170,1337,-796,87,2025-11-13_00-16-29,28
723,-1965,-129,51,80,-350,2025-11-13_00-16-29,29
957,-1840,-637,-37,-96,-290,2025-11-13_00-16-29,30
1247,-1673,-156,858,182,198,2025-11-13_00-16-29,31
1466,-2092,47,-564,165,-51,2025-11-13_00-16-29,32
605,-1847,167,-70,1,36,2025-11-13_00-16-29,33
1111,-1736,-174,967,10,117,2025-11-13_00-16-29,34
953,-1599,-139,-910,60,-109,2025-11-13_00-16-29,35
395,-2039,-258,-88,-281,186,2025-11-13_00-16-29,36
839,-1602,52,140,-137,152,2025-11-13_00-16-29,37
1069,-1631,-580,-523,2038,4,2025-11-13_00-16-29,38
1162,-1679,-32,-147,237,-111,2025-11-13_00-16-29,39
897,-2138,-177,-1418,394,-145,2025-11-13_00-16-29,40
1132,-1674,-180,369,1224,212,2025-11-13_00-16-29,41
851,-1740,-21,-695,671,-160,2025-11-13_00-16-29,42
895,-1648,259,-299,786,295,2025-11-13_00-16-29,43
1172,-1622,-401,-672,1882,28,2025-11-13_00-16-29,44
1023,-1772,-288,-97,-81,-100,2025-11-13_00-16-29,45
975,-1600,92,645,-24,143,2025-11-13_00-16-29,46
1353,-1497,-543,-577,944,258,2025-11-13_00-16-29,47
1068,-1849,-621,-77,2624,-416,2025-11-13_00-16-29,48
777,-1860,-164,-333,497,44,2025-11-13_00-16-29,49
1043,-1701,-133,823,566,60,2025-11-13_00-16-29,50
1506,-1824,6,-920,1706,-203,2025-11-13_00-16-29,51
1059,-1819,-228,-488,-249,187,2025-11-13_00-16-29,52
1176,-1626,-16,73,1408,-46,2025-11-13_00-16-29,53
847,-2984,-915,-14,831,-332,2025-11-13_00-16-29,54
690,-1988,-201,-499,355,223,2025-11-13_00-16-29,55
896,-1592,-33,455,259,193,2025-11-13_00-16-29,56
556,-1878,43,1450,-269,197,2025-11-15_22-12-04,0
1013,-2076,-187,-294,476,-535,2025-11-15_22-12-04,1
1875,-2058,600,-9,-1256,124,2025-11-15_22-12-04,2
758,-1883,-172,-499,86,-94,2025-11-15_22-12-04,3
379,-2005,53,-63,-288,-17,2025-11-15_22-12-04,4
892,-1774,91,788,498,269,2025-11-15_22-12-04,5
1032,-1971,-58,-737,507,-413,2025-11-15_22-12-04,6
804,-1825,351,-478,517,160,2025-11-15_22-12-04,7
970,-1817,-74,1270,264,-21,2025-11-15_22-12-04,8
787,-1864,-82,-560,888,-219,2025-11-15_22-12-04,9
825,-1666,-79,-597,-249,105,2025-11-15_22-12-04,10
770,-1661,-320,-335,-198,-330,2025-11-15_22-12-04,11
562,-1979,-203,-361,-334,95,2025-11-15_22-12-04,12
909,-1755,115,1111,740,143,2025-11-15_22-12-04,13
918,-2186,-76,-912,960,-476,2025-11-15_22-12-04,14
1183,-1795,218,-548,384,155,2025-11-15_22-12-04,15
988,-1862,-76,1226,148,318,2025-11-15_22-12-04,16
691,-1895,-179,-307,-157,-199,2025-11-15_22-12-04,17
717,-1766,-46,926,-471,414,2025-11-15_22-12-04,18
966,-2112,-208,-400,541,-492,2025-11-15_22-12-04,19
1572,-2150,491,-494,-1322,158,2025-11-15_22-12-04,20
849,-1799,-200,909,-933,-62,2025-11-15_22-12-04,21
622,-1886,17,-301,231,-124,2025-11-15_22-12-04,22
805,-1704,33,121,-487,314,2025-11-15_22-12-04,23
907,-1794,-603,-663,176,-165,2025-11-15_22-12-04,24
693,-1851,187,-653,228,-236,2025-11-15_22-12-04,25
1087,-1814,119,-1058,-412,103,2025-11-15_22-12-04,26
1000,-1898,-161,195,441,-15,2025-11-15_22-12-04,27
567,-1922,160,-270,207,-22,2025-11-15_22-12-04,28
894,-1836,-134,1129,150,227,2025-11-15_22-12-04,29
750,-1767,-193,-766,814,-302,2025-11-15_22-12-04,30
887,-1772,3,-220,64,86,2025-11-15_22-12-04,31
981,-1843,-141,1275,664,427,2025-11-15_22-12-04,32
523,-1955,-271,-499,217,-217,2025-11-15_22-12-04,33
781,-1720,212,-443,539,166,2025-11-15_22-12-04,34
921,-1670,-340,-500,537,-194,2025-11-15_22-12-04,35
480,-1937,51,-367,423,119,2025-11-15_22-12-04,36
1069,-1743,-117,744,1160,406,2025-11-15_22-12-04,37
613,-1893,-182,-524,387,-233,2025-11-15_22-12-04,38
737,-1780,231,-435,335,182,2025-11-15_22-12-04,39
916,-1738,-266,-698,848,-83,2025-11-15_22-12-04,40
439,-1988,-15,-323,161,11,2025-11-15_22-12-04,41
844,-1696,278,670,1312,76,2025-11-15_22-12-04,42
703,-2125,162,-601,523,-375,2025-11-15_22-12-04,43
505,-1988,103,-393,-43,227,2025-11-15_22-12-04,44
1064,-1798,-3,877,1131,1,2025-11-15_22-12-04,45
854,-1874,-211,-886,1072,-379,2025-11-15_22-12-04,46
610,-1918,109,-631,469,149,2025-11-15_22-12-04,47
1059,-1734,-44,611,1201,105,2025-11-15_22-12-04,48
727,-1853,-8,-411,435,-151,2025-11-15_22-12-04,49
752,-1661,234,-93,309,145,2025-11-15_22-12-04,50
938,-1756,-381,-710,828,-214,2025-11-15_22-12-04,51
1074,-1887,69,-465,-68,229,2025-11-15_22-12-04,52
833,-1868,-134,643,630,161,2025-11-15_22-12-04,53
647,-1956,-78,-371,151,-64,2025-11-15_22-12-04,54
1006,-1840,99,1166,1170,119,2025-11-15_22-12-04,55
393,-2142,-404,-669,933,-344,2025-11-15_22-12-04,56
994,-1727,371,-697,399,50,2025-11-15_22-12-04,57
1104,-1716,-207,-678,996,-207,2025-11-15_22-12-04,58
561,-1922,247,-380,101,202,2025-11-15_22-12-04,59
526,-1944,-89,-451,413,29,2025-11-15_22-13-07,0
884,-1785,44,731,915,192,2025-11-15_22-13-07,1
1039,-1842,-324,-674,929,-333,2025-11-15_22-13-07,2
830,-1751,276,-682,62,-13,2025-11-15_22-13-07,3
931,-1838,72,945,99,-7,2025-11-15_22-13-07,4
660,-1848,53,-541,278,-233,2025-11-15_22-13-07,5
764,-1648,41,206,-901,227,2025-11-15_22-13-07,6
753,-1643,-259,774,-130,-35,2025-11-15_22-13-07,7
743,-1801,12,-439,72,-184,2025-11-15_22-13-07,8
793,-1591,150,41,-334,262,2025-11-15_22-13-07,9
974,-1696,-133,156,572,1,2025-11-15_22-13-07,10
517,-1899,120,-263,-77,-114,2025-11-15_22-13-07,11
872,-1759,190,663,642,135,2025-11-15_22-13-07,12
869,-1846,-320,-763,729,-345,2025-11-15_22-13-07,13
837,-1799,321,-598,922,-38,2025-11-15_22-13-07,14
1064,-1785,-63,874,862,289,2025-11-15_22-13-07,15
634,-1938,-312,-628,804,-246,2025-11-15_22-13-07,16
671,-1710,413,-141,276,23,2025-11-15_22-13-07,17
936,-1779,-148,-14,1247,98,2025-11-15_22-13-07,18
630,-1899,51,-350,169,-57,2025-11-15_22-13-07,19
813,-1659,59,553,48,102,2025-11-15_22-13-07,20
524,-2059,24,-760,598,-549,2025-11-15_22-13-07,21
727,-1691,310,-526,-586,250,2025-11-15_22-13-07,22
970,-1902,-356,1424,275,404,2025-11-15_22-13-07,23
615,-1864,31,-687,399,-312,2025-11-15_22-13-07,24
719,-1698,225,-210,-301,209,2025-11-15_22-13-07,25
766,-1877,-229,-333,393,-62,2025-11-15_22-13-07,26
695,-1871,109,-436,194,-15,2025-11-15_22-13-07,27
879,-1697,35,838,654,133,2025-11-15_22-13-07,28
824,-2177,64,-827,904,-565,2025-11-15_22-13-07,29
1196,-1762,167,-599,175,134,2025-11-15_22-13-07,30
940,-1733,17,517,1103,471,2025-11-15_22-13-07,31
605,-1889,10,-594,336,-102,2025-11-15_22-13-07,32
923,-1657,211,201,1431,29,2025-11-15_22-13-07,33
1042,-2087,-262,-931,1417,-384,2025-11-15_22-13-07,34
1016,-1831,120,-440,-218,311,2025-11-15_22-13-07,35
1010,-1750,-124,336,1193,76,2025-11-15_22-13-07,36
698,-1845,168,-491,623,-107,2025-11-15_22-13-07,37
833,-1777,141,879,68,138,2025-11-15_22-13-07,38
893,-1756,-297,-541,413,-474,2025-11-15_22-13-07,39
767,-1842,212,-450,798,75,2025-11-15_22-13-07,40
865,-1916,-124,1407,-174,279,2025-11-15_22-13-07,41
899,-1788,-316,-666,-165,-244,2025-11-15_22-13-07,42
1065,-1959,125,-1099,-723,170,2025-11-15_22-13-07,43
842,-1746,-1,838,255,140,2025-11-15_22-13-07,44
672,-1789,221,-610,350,-164,2025-11-15_22-13-07,45
829,-1698,202,133,880,260,2025-11-15_22-13-07,46
1114,-1740,-431,-452,723,-12,2025-11-15_22-13-07,47
626,-1920,-72,-460,385,-56,2025-11-15_22-13-07,48
910,-1808,4,769,1134,163,2025-11-15_22-13-07,49
1477,-2079,-423,-732,883,-331,2025-11-15_22-13-07,50
627,-1718,-131,-385,-829,208,2025-11-15_22-13-07,51
1170,-1685,-213,261,1282,140,2025-11-15_22-13-07,52
483,-1905,60,-726,833,-326,2025-11-15_22-13-07,53
779,-1649,160,-131,245,80,2025-11-15_22-13-07,54
808,-1943,-251,-320,138,-177,2025-11-15_22-13-07,55
511,-1881,41,-580,236,-162,2025-11-15_22-14-07,0
745,-1793,-64,-89,-378,345,2025-11-15_22-14-07,1
939,-1673,-27,194,348,-22,2025-11-15_22-14-07,2
667,-1900,10,-354,-380,28,2025-11-15_22-14-07,3
929,-1737,56,633,1419,450,2025-11-15_22-14-07,4
787,-1937,-478,-958,1002,-383,2025-11-15_22-14-07,5
839,-1848,309,-298,919,23,2025-11-15_22-14-07,6
886,-1795,2,232,1307,418,2025-11-15_22-14-07,7
522,-1951,-282,-516,643,-86,2025-11-15_22-14-07,8
773,-1807,205,166,2046,313,2025-11-15_22-14-07,9
899,-1789,-284,-780,597,-337,2025-11-15_22-14-07,10
727,-1874,281,-396,256,247,2025-11-15_22-14-07,11
959,-1883,-250,1059,26,108,2025-11-15_22-14-07,12
727,-1858,-244,-548,22,-232,2025-11-15_22-14-07,13
750,-1771,-41,391,-434,130,2025-11-15_22-14-07,14
707,-1733,-390,-454,87,-251,2025-11-15_22-14-07,15
336,-2032,-122,-355,263,70,2025-11-15_22-14-07,16
944,-1780,-300,853,590,194,2025-11-15_22-14-07,17
723,-2054,-398,-942,1033,-525,2025-11-15_22-14-07,18
383,-2016,-127,-579,-743,506,2025-11-15_22-14-07,19
629,-1794,-286,508,1236,289,2025-11-15_22-14-07,20
653,-1857,40,-580,601,-190,2025-11-15_22-14-07,21
907,-1625,-38,-347,182,74,2025-11-15_22-14-07,22
923,-1645,-33,507,1122,236,2025-11-15_22-14-07,23
680,-1814,204,-520,723,-201,2025-11-15_22-14-07,24
851,-1725,-92,-154,1562,257,2025-11-15_22-14-07,25
973,-1573,-720,-701,434,-222,2025-11-15_22-14-07,26
466,-1911,-163,-185,715,-17,2025-11-15_22-14-07,27
1021,-1767,-328,800,1193,452,2025-11-15_22-14-07,28
571,-2004,-535,-455,103,-176,2025-11-15_22-14-07,29
585,-1741,-55,662,66,155,2025-11-15_22-14-07,30
918,-1736,-653,-642,602,-312,2025-11-15_22-14-07,31
1009,-1738,-102,-218,438,-73,2025-11-15_22-14-07,32
947,-1901,-323,1017,321,344,2025-11-15_22-14-07,33
412,-2262,-81,-596,504,-431,2025-11-15_22-14-07,34
703,-1988,-21,-405,194,-14,2025-11-15_22-14-07,35
863,-1592,-278,-498,112,-74,2025-11-15_22-14-07,36
684,-1897,-154,-328,360,-96,2025-11-15_22-14-07,37
1039,-1853,-306,900,833,216,2025-11-15_22-14-07,38
896,-2179,-163,-926,1214,-543,2025-11-15_22-14-07,39
651,-1895,-118,-255,415,59,2025-11-15_22-14-07,40
1054,-1850,-292,960,1470,594,2025-11-15_22-14-07,41
544,-1919,-153,-399,67,-120,2025-11-15_22-14-07,42
839,-1736,151,-102,909,241,2025-11-15_22-14-07,43
957,-1795,-365,-861,878,-395,2025-11-15_22-14-07,44
530,-1974,-120,-150,244,106,2025-11-15_22-14-07,45
928,-1765,-126,726,1513,554,2025-11-15_22-14-07,46
638,-1858,121,-375,587,-88,2025-11-15_22-14-07,47
937,-1632,-117,838,266,104,2025-11-15_22-14-07,48
1039,-2228,-581,-940,593,-340,2025-11-15_22-14-07,49
1510,-2153,-400,-430,-709,103,2025-11-15_22-14-07,50
1051,-1714,-99,895,80,129,2025-11-15_22-14-07,51
541,-1874,-25,-332,250,-106,2025-11-15_22-14-07,52
861,-1830,-540,764,-341,181,2025-11-15_22-14-07,53
786,-1991,-530,-699,538,-452,2025-11-15_22-14-07,54
832,-1906,93,-27,-691,120,2025-11-15_22-14-07,55
775,-1737,-199,687,587,383,2025-11-15_22-14-07,56
782,-1867,-187,-8,12,228,2025-11-15_22-16-05,0
822,-1973,-260,-946,1058,-392,2025-11-15_22-16-05,1
728,-1612,-377,-33,-469,202,2025-11-15_22-16-05,2
964,-1737,-447,-230,361,215,2025-11-15_22-16-05,3
559,-1989,-426,-305,95,53,2025-11-15_22-16-05,4
1144,-1729,-528,566,2398,657,2025-11-15_22-16-05,5
319,-1936,-232,-758,804,-163,2025-11-15_22-16-05,6
913,-1648,-204,-585,659,295,2025-11-15_22-16-05,7
622,-1682,-572,-695,656,-184,2025-11-15_22-16-05,8
329,-1988,29,-381,522,58,2025-11-15_22-16-05,9
763,-1909,-236,1035,203,115,2025-11-15_22-16-05,10
645,-1895,-482,-503,307,-297,2025-11-15_22-16-05,11
345,-1907,-463,-23,-1087,230,2025-11-15_22-16-05,12
726,-1780,-145,945,729,183,2025-11-15_22-16-05,13
485,-1923,-238,-614,166,-119,2025-11-15_22-16-05,14
844,-1736,-68,-94,63,225,2025-11-15_22-16-05,15
594,-1904,-51,1212,791,115,2025-11-15_22-16-05,16
551,-1895,-69,-309,368,-118,2025-11-15_22-16-05,17
703,-1812,-331,368,958,282,2025-11-15_22-16-05,18
846,-1973,-533,-716,439,-362,2025-11-15_22-16-05,19
1139,-1819,-61,-179,-683,-40,2025-11-15_22-16-05,20
714,-1873,-198,773,1106,142,2025-11-15_22-16-05,21
379,-1961,-56,-434,609,-43,2025-11-15_22-16-05,22
973,-1713,-263,659,1619,482,2025-11-15_22-16-05,23
911,-1926,-291,-782,845,-326,2025-11-15_22-16-05,24
931,-2060,-723,-1031,307,378,2025-11-15_22-16-05,25
954,-1746,-395,1592,558,256,2025-11-15_22-16-05,26
452,-1977,-313,-460,175,-94,2025-11-15_22-16-05,27
622,-1738,-117,66,-1053,311,2025-11-15_22-16-05,28
758,-1636,-411,-662,-158,-208,2025-11-15_22-16-05,29
576,-1920,-94,-392,-91,-48,2025-11-15_22-16-05,30
745,-1692,-154,801,1330,294,2025-11-15_22-16-05,31
750,-2173,-350,-754,237,-343,2025-11-15_22-16-05,32
645,-1887,-397,-574,192,65,2025-11-15_22-16-05,33
939,-1836,-300,1089,-53,407,2025-11-15_22-16-05,34
573,-1902,-407,-589,113,-118,2025-11-15_22-16-05,35
736,-1857,-562,-683,-306,-50,2025-11-15_22-16-05,36
924,-1678,-528,128,679,83,2025-11-15_22-16-05,37
543,-1873,100,-330,133,-56,2025-11-15_22-16-05,38
1045,-1674,-185,636,987,444,2025-11-15_22-16-05,39
629,-2090,-549,-1013,1059,-321,2025-11-15_22-16-05,40
452,-1922,32,-384,250,219,2025-11-15_22-16-05,41
948,-1710,-508,1128,302,275,2025-11-15_22-16-05,42
471,-1969,-249,-540,447,-70,2025-11-15_22-16-05,43
822,-1793,-3,10,1296,344,2025-11-15_22-16-05,44
965,-1827,-382,-732,818,-429,2025-11-15_22-16-05,45
868,-1964,-311,-353,-27,507,2025-11-15_22-16-05,46
863,-1599,-580,834,-77,-344,2025-11-15_22-16-05,47
706,-1903,-246,-242,115,4,2025-11-15_22-16-05,48
663,-1813,-279,1398,-810,343,2025-11-15_22-16-05,49
741,-1762,-403,-807,135,-189,2025-11-15_22-16-05,50
677,-1958,-239,-489,398,-138,2025-11-15_22-16-05,51
715,-1714,233,623,66,210,2025-11-15_22-16-05,52
766,-1807,-476,-869,637,-288,2025-11-15_22-16-05,53
545,-1985,-446,-448,112,0,2025-11-15_22-16-05,54
1018,-1814,-105,770,986,206,2025-11-15_22-16-05,55
687,-2100,-142,-1122,1151,-441,2025-11-15_22-16-05,56
222,-2004,-111,-500,319,114,2025-11-15_22-16-05,57
1022,-1734,-172,966,1320,269,2025-11-15_22-16-05,58
787,-1854,-189,1438,-61,203,2025-11-15_22-17-08,0
704,-1989,-250,-577,440,-229,2025-11-15_22-17-08,1
564,-1484,-926,-1030,-80,259,2025-11-15_22-17-08,2
995,-1604,-349,327,851,98,2025-11-15_22-17-08,3
542,-1904,-234,-383,381,-90,2025-11-15_22-17-08,4
707,-1815,-35,977,83,314,2025-11-15_22-17-08,5
765,-1639,-405,-647,409,-6,2025-11-15_22-17-08,6
351,-2017,-336,-419,471,20,2025-11-15_22-17-08,7
897,-1816,-238,1482,740,399,2025-11-15_22-17-08,8
431,-2103,-597,-765,702,-316,2025-11-15_22-17-08,9
647,-1754,-17,-630,460,255,2025-11-15_22-17-08,10
663,-1729,-518,-716,350,-238,2025-11-15_22-17-08,11
271,-1977,169,-255,182,202,2025-11-15_22-17-08,12
1244,-1528,-380,443,1310,369,2025-11-15_22-17-08,13
890,-1828,-13,-67,410,-27,2025-11-15_22-17-08,14
896,-1821,105,-48,174,-18,2025-11-15_22-17-08,15
845,-1833,79,-7,107,-8,2025-11-15_22-17-08,16
819,-1857,77,-13,163,-26,2025-11-15_22-17-08,17
854,-1836,82,-22,270,-16,2025-11-15_22-17-08,18
849,-1835,83,-13,216,-13,2025-11-15_22-17-08,19
787,-1853,133,-25,232,4,2025-11-15_22-17-08,20
732,-1873,127,-57,211,7,2025-11-15_22-17-08,21
746,-1884,58,15,187,-33,2025-11-15_22-17-08,22
758,-1880,108,-4,244,3,2025-11-15_22-17-08,23
701,-1883,135,-59,171,-41,2025-11-15_22-17-08,24
766,-1871,68,-19,291,-1,2025-11-15_22-17-08,25
770,-1857,149,-73,169,-90,2025-11-15_22-17-08,26
917,-1845,29,-15,294,-37,2025-11-15_22-17-08,27
893,-1801,111,-18,192,-22,2025-11-15_22-17-08,28
819,-1846,138,-3,178,27,2025-11-15_22-17-08,29
772,-1871,24,-217,224,49,2025-11-15_22-17-08,30
897,-1957,-175,-611,903,-225,2025-11-15_22-17-08,31
639,-1833,-540,-409,-5,181,2025-11-15_22-17-08,32
624,-1895,-337,1189,-249,9,2025-11-15_22-17-08,33
802,-1895,-699,-526,475,-238,2025-11-15_22-17-08,34
780,-1778,-378,-426,-722,245,2025-11-15_22-17-08,35
681,-1696,-293,985,552,111,2025-11-15_22-17-08,36
610,-1882,-80,-357,313,-151,2025-11-15_22-17-08,37
798,-1738,-341,288,-163,220,2025-11-15_22-17-08,38
1097,-1675,-584,182,-324,-33,2025-11-15_22-17-08,39
584,-1899,-44,-314,411,-131,2025-11-15_22-17-08,40
816,-1667,-146,-341,666,295,2025-11-15_22-17-08,41
741,-1685,-222,610,708,104,2025-11-15_22-17-08,42
629,-1900,-310,-346,448,-148,2025-11-15_22-17-08,43
823,-1753,-86,-211,1169,306,2025-11-15_22-17-08,44
929,-1632,-347,145,487,106,2025-11-15_22-17-08,45
700,-1898,-160,-272,203,-76,2025-11-15_22-17-08,46
903,-1709,-290,398,1349,296,2025-11-15_22-17-08,47
840,-1895,-500,-823,797,-342,2025-11-15_22-17-08,48
447,-1906,-129,-434,298,41,2025-11-15_22-17-08,49
933,-1734,-316,1030,597,173,2025-11-15_22-17-08,50
920,-2304,-218,-865,814,-486,2025-11-15_22-17-08,51
529,-1902,42,-261,58,44,2025-11-15_22-17-08,52
906,-1883,-472,1140,61,236,2025-11-15_22-17-08,53
1339,-2270,-286,-825,727,-565,2025-11-15_22-17-08,54
810,-2011,-241,-398,-68,138,2025-11-15_22-17-08,55
836,-1908,-283,1254,721,250,2025-11-15_22-17-08,56
667,-1832,-348,-642,367,-117,2025-11-15_22-18-11,0
798,-1792,33,-335,1156,287,2025-11-15_22-18-11,1
899,-1799,-262,-911,1196,-182,2025-11-15_22-18-11,2
298,-2039,-162,-412,-108,143,2025-11-15_22-18-11,3
1038,-1685,-385,973,1372,333,2025-11-15_22-18-11,4
540,-1930,-419,-705,893,-223,2025-11-15_22-18-11,5
977,-1801,-543,-541,-242,-27,2025-11-15_22-18-11,6
975,-1495,-617,-2,661,103,2025-11-15_22-18-11,7
571,-1964,-277,-305,344,-117,2025-11-15_22-18-11,8
723,-1802,70,-328,1535,404,2025-11-15_22-18-11,9
861,-1590,-871,-776,1291,-113,2025-11-15_22-18-11,10
505,-2046,-671,-421,264,55,2025-11-15_22-18-11,11
840,-1747,-277,655,1067,278,2025-11-15_22-18-11,12
864,-2586,-938,-672,597,-321,2025-11-15_22-18-11,13
684,-1833,85,-269,-154,219,2025-11-15_22-18-11,14
965,-1721,-401,55,320,112,2025-11-15_22-18-11,15
684,-1985,-417,-211,129,-19,2025-11-15_22-18-11,16
984,-1755,-165,657,1300,409,2025-11-15_22-18-11,17
385,-2082,-677,-749,831,-255,2025-11-15_22-18-11,18
1466,-2008,61,-208,-865,186,2025-11-15_22-18-11,19
890,-1816,-311,853,314,-121,2025-11-15_22-18-11,20
610,-1921,-276,-257,214,-131,2025-11-15_22-18-11,21
694,-1872,-375,1157,-485,212,2025-11-15_22-18-11,22
831,-1833,-242,-1048,455,-425,2025-11-15_22-18-11,23
408,-1918,192,-377,-74,30,2025-11-15_22-18-11,24
817,-1872,-353,1150,219,245,2025-11-15_22-18-11,25
572,-1883,-162,-609,172,-290,2025-11-15_22-18-11,26
978,-1965,-369,-290,-141,-31,2025-11-15_22-18-11,27
757,-1940,-201,1008,714,164,2025-11-15_22-18-11,28
432,-1891,-120,-378,369,-63,2025-11-15_22-18-11,29
966,-1741,-154,516,1109,381,2025-11-15_22-18-11,30
711,-1701,-509,-721,702,122,2025-11-15_22-18-11,31
716,-1997,-510,-465,113,-17,2025-11-15_22-18-11,32
887,-1763,56,282,1666,502,2025-11-15_22-18-11,33
626,-2035,-121,-920,610,-338,2025-11-15_22-18-11,34
399,-1944,-374,-88,554,-11,2025-11-15_22-18-11,35
1156,-1780,-229,1184,701,330,2025-11-15_22-18-11,36
661,-1938,-368,-550,3,-118,2025-11-15_22-18-11,37
664,-1753,-199,-430,-187,155,2025-11-15_22-18-11,38
786,-1715,-331,864,139,109,2025-11-15_22-18-11,39
583,-1938,-241,-97,-192,-103,2025-11-15_22-18-11,40
924,-1803,-342,856,263,319,2025-11-15_22-18-11,41
996,-2165,-297,-821,520,-424,2025-11-15_22-18-11,42
630,-1668,-225,-286,-553,239,2025-11-15_22-18-11,43
893,-1738,-480,255,390,143,2025-11-15_22-18-11,44
436,-1980,-324,-189,17,-30,2025-11-15_22-18-11,45
996,-1703,-651,1455,52,209,2025-11-15_22-18-11,46
448,-2197,-380,-517,753,-359,2025-11-15_22-18-11,47
693,-1767,-288,-481,711,65,2025-11-15_22-18-11,48
671,-1818,-297,-812,535,-303,2025-11-15_22-18-11,49
442,-1977,-196,-362,337,133,2025-11-15_22-18-11,50
787,-1731,-504,73,1095,105,2025-11-15_22-18-11,51
501,-2014,-406,-346,77,163,2025-11-15_22-18-11,52
933,-1726,-497,846,884,281,2025-11-15_22-18-11,53
405,-1918,-252,-590,247,-155,2025-11-15_23-02-50,0
1309,-2263,124,-927,-1759,224,2025-11-15_23-02-50,1
955,-1898,-490,-93,499,17,2025-11-15_23-02-50,2
369,-1991,-259,-387,193,20,2025-11-15_23-02-50,3
604,-1876,-310,1125,1183,325,2025-11-15_23-02-50,4
294,-2508,-381,-524,702,-311,2025-11-15_23-02-50,5
-149,-2148,271,-744,327,139,2025-11-15_23-02-50,6
541,-1774,-524,-805,738,37,2025-11-15_23-02-50,7
266,-2047,-365,-452,445,31,2025-11-15_23-02-50,8
809,-1821,-105,1139,1609,111,2025-11-15_23-02-50,9
301,-1927,-133,-645,576,-106,2025-11-15_23-02-50,10
344,-1971,55,-721,88,43,2025-11-15_23-02-50,11
686,-1802,-312,-837,22,-90,2025-11-15_23-02-50,12
407,-2066,-396,-420,-230,185,2025-11-15_23-02-50,13
348,-2066,-436,1577,-74,-163,2025-11-15_23-02-50,14
435,-1956,-369,-502,259,-122,2025-11-15_23-02-50,15
475,-1787,-204,-680,278,219,2025-11-15_23-02-50,16
609,-1756,-378,-869,448,-198,2025-11-15_23-02-50,17
217,-2007,-231,-449,194,171,2025-11-15_23-02-50,18
708,-1963,-102,1624,70,-77,2025-11-15_23-02-50,19
355,-1931,-172,-682,529,-173,2025-11-15_23-02-50,20
950,-2316,75,-580,-659,91,2025-11-15_23-02-50,21
635,-1769,-459,745,1519,205,2025-11-15_23-02-50,22
362,-1957,-199,-322,379,18,2025-11-15_23-02-50,23
889,-1786,-118,732,1189,140,2025-11-15_23-02-50,24
280,-1952,-300,-566,629,-123,2025-11-15_23-02-50,25
445,-1874,-39,-318,177,201,2025-11-15_23-02-50,26
688,-1756,-702,-908,1575,-106,2025-11-15_23-02-50,27
233,-1963,-95,-380,194,230,2025-11-15_23-02-50,28
639,-1923,-405,1487,940,-54,2025-11-15_23-02-50,29
370,-1936,-225,-499,-147,-30,2025-11-15_23-02-50,30
552,-1785,-285,939,-322,222,2025-11-15_23-02-50,31
616,-2165,-252,-830,60,-407,2025-11-15_23-02-50,32
237,-2022,-22,-380,-189,119,2025-11-15_23-02-50,33
734,-1913,-472,1386,319,231,2025-11-15_23-02-50,34
405,-1844,-88,-847,441,-148,2025-11-15_23-02-50,35
187,-2199,-368,-440,-284,41,2025-11-15_23-02-50,36
841,-1851,-469,42,429,-71,2025-11-15_23-02-50,37
460,-1918,-133,-358,382,-42,2025-11-15_23-02-50,38
642,-1804,-271,409,514,171,2025-11-15_23-02-50,39
506,-1719,-866,-768,907,-111,2025-11-15_23-02-50,40
162,-2008,-51,-372,39,223,2025-11-15_23-02-50,41
760,-1839,-310,970,1251,108,2025-11-15_23-02-50,42
346,-1937,-317,-657,645,-207,2025-11-15_23-02-50,43
707,-2147,183,-330,-788,-86,2025-11-15_23-02-50,44
615,-1698,-753,-518,361,-5,2025-11-15_23-02-50,45
375,-1995,-261,-263,212,165,2025-11-15_23-02-50,46
692,-1928,-264,1351,121,-138,2025-11-15_23-02-50,47
470,-1906,-320,-671,495,-159,2025-11-15_23-02-50,48
485,-1823,-458,-340,-322,161,2025-11-15_23-02-50,49
831,-1787,-555,108,287,-21,2025-11-15_23-02-50,50
358,-2020,-539,-380,236,-25,2025-11-15_23-02-50,51
674,-1905,-478,1048,582,172,2025-11-15_23-02-50,52
-4,-2404,-334,-489,406,-270,2025-11-15_23-02-50,53
616,-1946,-190,-353,-86,201,2025-11-15_23-02-50,54
793,-1853,-585,297,585,140,2025-11-15_23-02-50,55
407,-1941,-244,-301,223,-45,2025-11-15_23-02-50,56
623,-1800,-394,302,1436,450,2025-11-15_23-02-50,57
686,-2088,-765,-971,859,-359,2025-11-15_23-02-50,58
696,-1944,-247,-177,470,108,2025-11-15_23-02-50,59
654,-1790,-246,432,1046,265,2025-11-15_23-03-53,0
348,-2241,-626,-890,909,-336,2025-11-15_23-03-53,1
332,-1946,-173,-408,326,152,2025-11-15_23-03-53,2
683,-1784,-463,586,139,-181,2025-11-15_23-03-53,3
447,-2001,-477,-282,-255,-20,2025-11-15_23-03-53,4
597,-1962,-502,1213,-276,19,2025-11-15_23-03-53,5
563,-2225,-497,-663,356,-343,2025-11-15_23-03-53,6
802,-2206,-227,-369,-363,149,2025-11-15_23-03-53,7
693,-1751,-484,792,193,33,2025-11-15_23-03-53,8
415,-2023,-579,-339,158,-7,2025-11-15_23-03-53,9
831,-1781,-443,1054,719,105,2025-11-15_23-03-53,10
397,-2382,-505,-462,537,-222,2025-11-15_23-03-53,11
785,-1896,-399,-494,197,130,2025-11-15_23-03-53,12
632,-1713,-555,487,892,33,2025-11-15_23-03-53,13
365,-1988,-424,-344,256,-10,2025-11-15_23-03-53,14
772,-1893,-530,958,773,225,2025-11-15_23-03-53,15
675,-2182,-508,-647,508,-274,2025-11-15_23-03-53,16
565,-1991,-32,-416,-129,79,2025-11-15_23-03-53,17
783,-1846,-633,-260,636,206,2025-11-15_23-03-53,18
420,-1951,-413,-277,-10,89,2025-11-15_23-03-53,19
848,-1823,-501,863,1468,292,2025-11-15_23-03-53,20
287,-2186,-239,-504,294,-189,2025-11-15_23-03-53,21
756,-1855,-466,-594,-603,189,2025-11-15_23-03-53,22
495,-1721,-753,-585,325,-135,2025-11-15_23-03-53,23
479,-1920,-165,-189,-113,155,2025-11-15_23-03-53,24
639,-1842,-527,1064,308,32,2025-11-15_23-03-53,25
423,-1925,-466,-544,339,-66,2025-11-15_23-03-53,26
520,-1883,-472,603,-33,80,2025-11-15_23-03-53,27
534,-1964,-713,-808,829,-351,2025-11-15_23-03-53,28
679,-1897,-110,-346,-269,148,2025-11-15_23-03-53,29
854,-1850,-742,-75,-109,63,2025-11-15_23-03-53,30
212,-1992,-160,-263,161,120,2025-11-15_23-03-53,31
809,-1903,-526,916,-77,155,2025-11-15_23-03-53,32
323,-1924,-348,-382,202,-77,2025-11-15_23-03-53,33
640,-1859,-568,992,145,142,2025-11-15_23-03-53,34
391,-1897,-416,-547,310,-199,2025-11-15_23-03-53,35
848,-1826,-721,-594,-347,93,2025-11-15_23-03-53,36
640,-1507,-882,-656,1059,54,2025-11-15_23-03-53,37
403,-1980,-324,-125,202,144,2025-11-15_23-03-53,38
680,-1746,-598,794,829,214,2025-11-15_23-03-53,39
364,-1988,-385,-178,309,8,2025-11-15_23-03-53,40
862,-1751,-431,529,1577,254,2025-11-15_23-03-53,41
313,-1858,-410,-722,507,-36,2025-11-15_23-03-53,42
689,-1833,-217,-458,-14,194,2025-11-15_23-03-53,43
770,-1651,-728,-734,356,-93,2025-11-15_23-03-53,44
453,-1958,-19,-216,-87,198,2025-11-15_23-03-53,45
714,-1823,-579,1018,105,-91,2025-11-15_23-03-53,46
473,-1892,-472,-621,16,-206,2025-11-15_23-03-53,47
587,-1794,-424,271,-511,170,2025-11-15_23-03-53,48
685,-1773,-632,-639,481,-308,2025-11-15_23-03-53,49
614,-1827,-124,-227,214,87,2025-11-15_23-03-53,50
816,-1879,-439,1151,282,129,2025-11-15_23-03-53,51
356,-1933,-325,-328,262,-22,2025-11-15_23-03-53,52
728,-1945,-445,1062,334,312,2025-11-15_23-03-53,53
439,-2167,-849,-973,1318,-321,2025-11-15_23-03-53,54
575,-1815,-485,-424,-560,234,2025-11-15_23-03-53,55
644,-1789,-282,784,977,85,2025-11-15_23-03-53,56
622,-1936,-560,-899,1181,-171,2025-11-15_23-04-54,0
359,-1995,-241,-289,11,160,2025-11-15_23-04-54,1
768,-1807,-575,1051,1185,263,2025-11-15_23-04-54,2
358,-1906,-265,-455,519,-9,2025-11-15_23-04-54,3
700,-1905,-334,1059,-234,-15,2025-11-15_23-04-54,4
592,-2048,-439,-990,147,-373,2025-11-15_23-04-54,5
481,-1918,-282,-457,-498,302,2025-11-15_23-04-54,6
660,-1741,-654,825,359,19,2025-11-15_23-04-54,7
364,-1865,-229,-431,582,-14,2025-11-15_23-04-54,8
735,-1791,-200,515,388,136,2025-11-15_23-04-54,9
594,-1863,-773,-894,725,-185,2025-11-15_23-04-54,10
258,-1932,-114,-387,219,13,2025-11-15_23-04-54,11
732,-1938,-619,1120,-35,250,2025-11-15_23-04-54,12
325,-1932,-398,-828,618,-159,2025-11-15_23-04-54,13
756,-2033,-171,-339,-804,106,2025-11-15_23-04-54,14
637,-1648,-1100,-630,1007,242,2025-11-15_23-04-54,15
285,-2049,-565,-303,103,89,2025-11-15_23-04-54,16
853,-1793,-394,1154,1342,252,2025-11-15_23-04-54,17
368,-1887,-224,-657,414,-78,2025-11-15_23-04-54,18
354,-2121,20,-215,-760,66,2025-11-15_23-04-54,19
645,-1553,-1206,-127,-114,-33,2025-11-15_23-04-54,20
391,-1971,-467,-315,111,128,2025-11-15_23-04-54,21
456,-1958,-555,1474,-1259,-10,2025-11-15_23-04-54,22
653,-2151,-450,-1150,228,-391,2025-11-15_23-04-54,23
799,-2439,-82,-347,-483,146,2025-11-15_23-04-54,24
852,-1638,-880,415,477,108,2025-11-15_23-04-54,25
80,-2014,-106,-400,-88,155,2025-11-15_23-04-54,26
579,-1853,-702,1000,154,177,2025-11-15_23-04-54,27
349,-1896,-399,-620,452,32,2025-11-15_23-04-54,28
684,-1817,-273,-218,306,132,2025-11-15_23-04-54,29
582,-1780,-766,-1014,939,-123,2025-11-15_23-04-54,30
304,-2001,-160,-131,640,144,2025-11-15_23-04-54,31
666,-1786,-626,1219,711,244,2025-11-15_23-04-54,32
238,-1978,-250,-550,380,52,2025-11-15_23-04-54,33
716,-1758,-274,214,1400,285,2025-11-15_23-04-54,34
475,-2294,-575,-993,1282,-206,2025-11-15_23-04-54,35
475,-2025,-349,-401,-108,282,2025-11-15_23-04-54,36
679,-1769,-732,384,1548,350,2025-11-15_23-04-54,37
316,-2041,-368,-339,439,19,2025-11-15_23-04-54,38
823,-1892,-548,1196,1,-56,2025-11-15_23-04-54,39
485,-1953,-495,-738,719,-177,2025-11-15_23-04-54,40
687,-1701,-277,-232,212,257,2025-11-15_23-04-54,41
632,-1673,-774,-608,-16,-262,2025-11-15_23-04-54,42
171,-2013,-207,-302,0,98,2025-11-15_23-04-54,43
747,-1763,-684,938,-321,81,2025-11-15_23-04-54,44
358,-1923,-470,-360,649,-54,2025-11-15_23-04-54,45
740,-1815,-378,921,32,85,2025-11-15_23-04-54,46
726,-2394,-759,-651,428,-339,2025-11-15_23-04-54,47
607,-1942,-326,-426,-312,225,2025-11-15_23-04-54,48
576,-1666,-697,857,1191,319,2025-11-15_23-04-54,49
280,-1995,-376,-276,1,64,2025-11-15_23-04-54,50
753,-1793,-490,1160,420,194,2025-11-15_23-04-54,51
321,-1941,-352,-399,738,11,2025-11-15_23-04-54,52
816,-1829,-528,707,825,253,2025-11-15_23-04-54,53
332,-1938,-237,-527,587,-33,2025-11-15_23-04-54,54
604,-1822,-296,199,803,98,2025-11-15_23-04-54,55
308,-1961,-359,-981,1130,-21,2025-11-15_23-04-54,56
685,-1922,-615,1921,-145,-441,2025-11-15_23-05-55,0
340,-1927,-418,-526,364,-50,2025-11-15_23-05-55,1
517,-1801,-357,216,-599,52,2025-11-15_23-05-55,2
323,-1951,-436,-476,396,-172,2025-11-15_23-05-55,3
669,-1718,-238,-80,-354,243,2025-11-15_23-05-55,4
491,-1652,-818,395,-70,47,2025-11-15_23-05-55,5
389,-2072,-658,-472,424,28,2025-11-15_23-05-55,6
538,-1844,-398,610,579,237,2025-11-15_23-05-55,7
569,-1805,-475,-894,455,-123,2025-11-15_23-05-55,8
360,-1995,-268,-243,-243,124,2025-11-15_23-05-55,9
778,-1847,-377,682,597,212,2025-11-15_23-05-55,10
662,-2354,-394,-1191,1384,-296,2025-11-15_23-05-55,11
553,-1905,187,-415,-16,217,2025-11-15_23-05-55,12
883,-1787,-547,1604,826,379,2025-11-15_23-05-55,13
362,-1912,-293,-686,527,-174,2025-11-15_23-05-55,14
295,-2001,-268,-484,314,1,2025-11-15_23-05-55,15
862,-1852,-638,-52,492,183,2025-11-15_23-05-55,16
402,-1929,-146,-534,541,19,2025-11-15_23-05-55,17
435,-1638,-341,115,-359,181,2025-11-15_23-05-55,18
583,-1855,-780,1322,424,216,2025-11-15_23-05-55,19
362,-1969,-521,-793,602,-86,2025-11-15_23-05-55,20
516,-1931,-627,-510,-557,287,2025-11-15_23-05-55,21
483,-1827,-647,1587,-274,166,2025-11-15_23-05-55,22
894,-2102,-298,-1378,650,-335,2025-11-15_23-05-55,23
222,-2026,-466,-500,-15,191,2025-11-15_23-05-55,24
847,-1822,-499,906,1072,274,2025-11-15_23-05-55,25
793,-2116,-631,-1231,978,-190,2025-11-15_23-05-55,26
165,-2007,-323,-539,316,234,2025-11-15_23-05-55,27
776,-1827,-526,1119,1370,292,2025-11-15_23-05-55,28
772,-2136,-476,-1360,1349,-9,2025-11-15_23-05-55,29
167,-2004,112,-506,51,196,2025-11-15_23-05-55,30
870,-2018,-402,2079,459,-19,2025-11-15_23-05-55,31
776,-2268,-477,-1096,266,-400,2025-11-15_23-05-55,32
568,-2081,-181,-467,-482,241,2025-11-15_23-05-55,33
448,-1915,-879,1489,-454,-36,2025-11-15_23-05-55,34
893,-2136,-509,-1280,299,-360,2025-11-15_23-05-55,35
168,-2069,-238,-445,346,203,2025-11-15_23-05-55,36
587,-1827,-430,1346,680,192,2025-11-15_23-05-55,37
501,-1767,-217,-1511,1106,-89,2025-11-15_23-05-55,38
275,-1913,-300,-406,395,37,2025-11-15_23-05-55,39
533,-1784,-106,-150,785,325,2025-11-15_23-05-55,40
394,-1748,-946,-604,1309,307,2025-11-15_23-05-55,41
370,-1946,-146,-261,396,22,2025-11-15_23-05-55,42
1030,-1618,-305,-770,318,222,2025-11-15_23-05-55,43
1000,-1758,-1051,-299,1199,189,2025-11-15_23-05-55,44
429,-1863,-158,-578,323,-12,2025-11-15_23-05-55,45
491,-1704,-629,-757,-302,248,2025-11-15_23-05-55,46
582,-1842,-618,1929,464,117,2025-11-15_23-05-55,47
457,-1960,-321,-671,31,-151,2025-11-15_23-05-55,48
599,-1913,-711,-479,-734,93,2025-11-15_23-05-55,49
536,-1851,-570,1080,258,8,2025-11-15_23-05-55,50
417,-2065,-468,-1149,884,-111,2025-11-15_23-05-55,51
205,-2062,-331,-371,103,115,2025-11-15_23-05-55,52
809,-1821,-516,901,1208,258,2025-11-15_23-05-55,53
542,-1609,-624,-1215,1891,32,2025-11-15_23-05-55,54
251,-1939,-137,-371,320,54,2025-11-15_23-05-55,55
509,-1778,-188,-131,698,300,2025-11-15_23-05-55,56
583,-1808,-468,80,54,333,2025-11-15_23-06-55,0
567,-1912,-497,-1202,625,-394,2025-11-15_23-06-55,1
560,-1916,-300,-446,-631,6,2025-11-15_23-06-55,2
607,-1780,-532,1189,-158,4,2025-11-15_23-06-55,3
804,-1660,-890,-329,-213,-9,2025-11-15_23-06-55,4
364,-1999,-250,-365,211,-108,2025-11-15_23-06-55,5
640,-1710,-158,103,-34,260,2025-11-15_23-06-55,6
841,-1747,-865,-326,201,164,2025-11-15_23-06-55,7
348,-1943,-375,-429,205,-12,2025-11-15_23-06-55,8
702,-1775,-235,707,430,240,2025-11-15_23-06-55,9
440,-1691,-653,-987,1350,14,2025-11-15_23-06-55,10
247,-2007,-393,-267,274,117,2025-11-15_23-06-55,11
769,-1784,-283,817,1928,262,2025-11-15_23-06-55,12
612,-2275,-448,-1159,625,-334,2025-11-15_23-06-55,13
529,-1891,-56,-221,50,64,2025-11-15_23-06-55,14
660,-2041,-709,1564,150,130,2025-11-15_23-06-55,15
744,-1978,-559,-1059,463,-367,2025-11-15_23-06-55,16
269,-2013,-297,-280,-309,117,2025-11-15_23-06-55,17
649,-1863,-695,1543,-2,142,2025-11-15_23-06-55,18
460,-1906,-650,-620,465,-134,2025-11-15_23-06-55,19
638,-2005,-606,-467,-462,121,2025-11-15_23-06-55,20
758,-1721,-672,1630,18,233,2025-11-15_23-06-55,21
298,-1909,-19,-763,490,41,2025-11-15_23-06-55,22
679,-1758,-281,133,1238,283,2025-11-15_23-06-55,23
767,-1816,-780,-1125,1425,14,2025-11-15_23-06-55,24
257,-2059,-588,-387,572,74,2025-11-15_23-06-55,25
851,-1781,-623,897,1715,514,2025-11-15_23-06-55,26
-157,-2242,-300,-833,815,-199,2025-11-15_23-06-55,27
588,-1797,-383,-655,-444,225,2025-11-15_23-06-55,28
768,-1518,-977,1111,755,426,2025-11-15_23-06-55,29
300,-1931,-216,-379,-29,53,2025-11-15_23-06-55,30
507,-1792,-418,815,-577,114,2025-11-15_23-06-55,31
710,-1670,-663,-628,-84,-276,2025-11-15_23-06-55,32
573,-1989,-574,-343,-153,-40,2025-11-15_23-06-55,33
626,-1835,-377,979,31,156,2025-11-15_23-06-55,34
641,-1718,-451,-920,937,-11,2025-11-15_23-06-55,35
354,-1992,-315,-390,93,7,2025-11-15_23-06-55,36
693,-1871,-247,525,661,222,2025-11-15_23-06-55,37
625,-1947,-517,-1042,842,-247,2025-11-15_23-06-55,38
253,-2018,-293,-470,409,106,2025-11-15_23-06-55,39
812,-1786,-357,550,1744,316,2025-11-15_23-06-55,40
568,-2045,-586,-892,1520,-381,2025-11-15_23-06-55,41
379,-1896,-166,-368,520,72,2025-11-15_23-06-55,42
876,-1804,-579,1124,1026,295,2025-11-15_23-06-55,43
80,-2645,-115,-497,726,-289,2025-11-15_23-06-55,44
237,-2203,-531,-403,-969,194,2025-11-15_23-06-55,45
490,-1989,-546,1579,10,98,2025-11-15_23-06-55,46
444,-1953,-343,-511,185,-137,2025-11-15_23-06-55,47
682,-1737,-295,-333,-273,178,2025-11-15_23-06-55,48
887,-1590,-1134,268,1216,61,2025-11-15_23-06-55,49
507,-1971,-502,-294,-297,-37,2025-11-15_23-06-55,50
551,-1739,-554,759,-385,130,2025-11-15_23-06-55,51
539,-1963,-312,-929,36,-204,2025-11-15_23-06-55,52
389,-1967,-303,-339,-84,3,2025-11-15_23-06-55,53
757,-1799,-603,911,1355,421,2025-11-15_23-06-55,54
565,-2003,-452,-1194,1696,-225,2025-11-15_23-06-55,55
194,-2013,-22,-387,503,158,2025-11-15_23-06-55,56
428,-1890,-232,-426,-572,-65,2025-11-15_23-10-55,0
47,-1767,-44,-528,-95,-286,2025-11-15_23-10-55,1
176,-2355,-696,-443,-1316,-80,2025-11-15_23-10-55,2
954,-1840,-235,-395,-521,-170,2025-11-15_23-10-55,3
-60,-1926,-653,1107,332,71,2025-11-15_23-10-55,4
338,-1915,-404,-318,73,-98,2025-11-15_23-10-55,5
-64,-1913,-501,923,55,-34,2025-11-15_23-10-55,6
141,-2300,-744,-522,-987,97,2025-11-15_23-10-55,7
191,-2064,-348,-540,192,-202,2025-11-15_23-10-55,8
3,-2052,-471,1592,1031,302,2025-11-15_23-10-55,9
80,-1976,-476,-738,-356,112,2025-11-15_23-10-55,10
225,-1980,-407,-1058,515,-782,2025-11-15_23-10-55,11
307,-1877,-709,1323,393,286,2025-11-15_23-10-55,12
315,-1953,-365,-439,34,-120,2025-11-15_23-10-55,13
353,-1957,-510,920,1347,33,2025-11-15_23-10-55,14
149,-2152,-704,-764,-307,130,2025-11-15_23-10-55,15
-466,-2424,-340,-1169,2258,-590,2025-11-15_23-10-55,16
134,-1912,-589,-53,824,323,2025-11-15_23-10-55,17
323,-1932,-328,-327,14,-121,2025-11-15_23-10-55,18
-22,-2022,-439,1471,822,122,2025-11-15_23-10-55,19
440,-1957,-683,-605,-419,-41,2025-11-15_23-10-55,20
-72,-2351,29,-946,1143,-213,2025-11-15_23-10-55,21
-94,-1747,-788,281,-111,-27,2025-11-15_23-10-55,22
377,-1869,-389,-246,-110,-162,2025-11-15_23-10-55,23
210,-1989,-443,985,1140,130,2025-11-15_23-10-55,24
195,-2639,-653,-682,-411,-105,2025-11-15_23-10-55,25
212,-1933,-798,-226,-641,-190,2025-11-15_23-10-55,26
80,-2023,-525,1924,740,308,2025-11-15_23-10-55,27
352,-1967,-465,-544,-267,-126,2025-11-15_23-10-55,28
45,-1756,-481,-206,2209,-349,2025-11-15_23-10-55,29
302,-1721,-837,-616,810,206,2025-11-15_23-10-55,30
166,-2035,-644,-554,830,-189,2025-11-15_23-10-55,31
315,-1942,-425,1310,1002,422,2025-11-15_23-10-55,32
56,-2589,-895,-687,-147,320,2025-11-15_23-10-55,33
720,-2564,-466,-616,599,-430,2025-11-15_23-10-55,34
111,-1905,-652,89,415,-224,2025-11-15_23-10-55,35
362,-1878,-443,-437,663,-1,2025-11-15_23-10-55,36
250,-1941,-590,769,-99,-235,2025-11-15_23-10-55,37
140,-2073,-868,-704,-317,185,2025-11-15_23-10-55,38
313,-1927,-248,-239,553,-275,2025-11-15_23-10-55,39
232,-1867,-826,1459,18,-276,2025-11-15_23-10-55,40
434,-1901,-604,-441,159,-63,2025-11-15_23-10-55,41
1,-1805,-237,580,533,14,2025-11-15_23-10-55,42
90,-1735,-1038,-582,-380,101,2025-11-15_23-10-55,43
458,-1912,-176,-326,287,-273,2025-11-15_23-10-55,44
8,-1978,-582,1328,1440,210,2025-11-15_23-10-55,45
341,-1908,-531,-539,399,-84,2025-11-15_23-10-55,46
73,-1821,-658,739,788,42,2025-11-15_23-10-55,47
339,-2175,-825,-609,-336,319,2025-11-15_23-10-55,48
371,-1932,-916,-370,43,-70,2025-11-15_23-10-55,49
18,-1762,-734,558,1231,104,2025-11-15_23-10-55,50
305,-1860,-598,-426,212,63,2025-11-15_23-10-55,51
269,-1895,-603,819,2347,208,2025-11-15_23-10-55,52
72,-2157,-658,-452,-561,446,2025-11-15_23-10-55,53
52,-1727,-844,-453,219,-380,2025-11-15_23-10-55,54
132,-1695,-844,100,18,-266,2025-11-15_23-10-55,55
379,-1932,-407,-196,-24,-44,2025-11-15_23-10-55,56
-32,-2105,-523,1395,297,-55,2025-11-15_23-10-55,57
486,-1875,-781,-559,-221,2,2025-11-15_23-10-55,58
62,-1734,-279,-736,870,-254,2025-11-15_23-10-55,59
-27,-1604,-853,-1061,1635,-378,2025-11-15_23-11-58,0
219,-1505,-1232,-428,-75,-23,2025-11-15_23-11-58,1
417,-1903,-791,-483,410,-187,2025-11-15_23-11-58,2
232,-2029,-639,1121,1414,245,2025-11-15_23-11-58,3
283,-2405,-832,-749,268,390,2025-11-15_23-11-58,4
167,-1563,-1189,-763,2241,-210,2025-11-15_23-11-58,5
87,-1740,-890,1085,623,290,2025-11-15_23-11-58,6
316,-1886,-515,-368,314,-34,2025-11-15_23-11-58,7
387,-2103,-818,1350,1324,-119,2025-11-15_23-11-58,8
210,-2188,-793,-846,-38,387,2025-11-15_23-11-58,9
119,-1840,-497,-607,669,-331,2025-11-15_23-11-58,10
246,-1762,-635,473,-282,-359,2025-11-15_23-11-58,11
410,-1901,-259,-440,-147,-190,2025-11-15_23-11-58,12
118,-1948,-876,1291,-478,-135,2025-11-15_23-11-58,13
177,-2332,-643,-808,-148,193,2025-11-15_23-11-58,14
245,-2206,-820,-660,735,-463,2025-11-15_23-11-58,15
222,-1690,-870,501,732,222,2025-11-15_23-11-58,16
457,-1894,-394,-386,117,-22,2025-11-15_23-11-58,17
238,-1861,-941,1127,1265,70,2025-11-15_23-11-58,18
340,-2237,-884,-773,108,202,2025-11-15_23-11-58,19
175,-1971,-311,-768,568,-328,2025-11-15_23-11-58,20
364,-1651,-1356,-444,-183,33,2025-11-15_23-11-58,21
511,-1972,-568,-466,482,-212,2025-11-15_23-11-58,22
14,-1902,-643,577,1310,171,2025-11-15_23-11-58,23
381,-1851,-457,-319,202,51,2025-11-15_23-11-58,24
310,-1932,-765,895,1246,300,2025-11-15_23-11-58,25
271,-2132,-781,-705,151,479,2025-11-15_23-11-58,26
458,-2315,-379,-710,1153,-332,2025-11-15_23-11-58,27
210,-1567,-1077,-285,-739,-332,2025-11-15_23-11-58,28
473,-1912,-701,-334,-30,-105,2025-11-15_23-11-58,29
128,-1889,-856,1080,858,-241,2025-11-15_23-11-58,30
459,-2130,-999,-649,-571,79,2025-11-15_23-11-58,31
619,-1815,-392,-197,45,-162,2025-11-15_23-11-58,32
13,-1895,-520,1373,403,-23,2025-11-15_23-11-58,33
388,-1854,-422,-538,149,4,2025-11-15_23-11-58,34
37,-1814,-943,-569,365,-199,2025-11-15_23-11-58,35
271,-1363,-1430,-456,-56,-131,2025-11-15_23-11-58,36
453,-1945,-527,-290,-42,-23,2025-11-15_23-11-58,37
116,-1984,-769,845,1071,188,2025-11-15_23-11-58,38
384,-1851,-778,-618,-170,194,2025-11-15_23-11-58,39
247,-1673,-717,-438,1475,-247,2025-11-15_23-11-58,40
-44,-1615,-705,888,-28,-21,2025-11-15_23-11-58,41
450,-1923,-737,-512,763,-48,2025-11-15_23-11-58,42
144,-2006,-691,1087,2125,387,2025-11-15_23-11-58,43
397,-2008,-621,-696,-19,350,2025-11-15_23-11-58,44
298,-1994,-453,-290,324,-161,2025-11-15_23-11-58,45
145,-2023,-542,1093,1318,-163,2025-11-15_23-11-58,46
414,-1991,-913,-671,-430,207,2025-11-15_23-11-58,47
-122,-1680,-755,-558,197,-190,2025-11-15_23-11-58,48
-54,-1915,-823,1509,408,-138,2025-11-15_23-11-58,49
690,-1879,-776,-535,-456,-99,2025-11-15_23-11-58,50
-81,-2313,-613,-455,379,-448,2025-11-15_23-11-58,51
-42,-1766,-831,470,1088,28,2025-11-15_23-11-58,52
340,-1945,-405,-599,435,-79,2025-11-15_23-11-58,53
56,-1845,-723,366,750,-65,2025-11-15_23-11-58,54
58,-1502,-1111,-364,152,13,2025-11-15_23-11-58,55
575,-1932,-750,-464,685,-101,2025-11-15_23-11-58,56
-219,-2437,-752,-759,-113,556,2025-11-15_23-12-59,0
510,-1829,-480,-330,513,-47,2025-11-15_23-12-59,1
-21,-1871,-966,1792,612,-3,2025-11-15_23-12-59,2
265,-2154,-744,-782,-731,156,2025-11-15_23-12-59,3
413,-1990,-799,-495,110,-95,2025-11-15_23-12-59,4
107,-1929,-877,886,566,-70,2025-11-15_23-12-59,5
685,-1519,-1295,-257,-733,-11,2025-11-15_23-12-59,6
255,-1941,-745,-376,287,-108,2025-11-15_23-12-59,7
166,-1877,-686,688,-383,-222,2025-11-15_23-12-59,8
112,-1493,-1152,-475,-430,18,2025-11-15_23-12-59,9
436,-1946,-798,-250,50,-85,2025-11-15_23-12-59,10
284,-1947,-645,784,1092,106,2025-11-15_23-12-59,11
420,-2364,-782,-1158,-68,222,2025-11-15_23-12-59,12
384,-1984,-769,-489,748,-24,2025-11-15_23-12-59,13
234,-1892,-689,791,2256,338,2025-11-15_23-12-59,14
76,-2027,-370,-743,62,412,2025-11-15_23-12-59,15
327,-1900,-169,-310,807,-162,2025-11-15_23-12-59,16
308,-1932,-862,415,2644,182,2025-11-15_23-12-59,17
44,-1858,-540,-716,-499,115,2025-11-15_23-12-59,18
432,-1955,-519,-385,471,-89,2025-11-15_23-12-59,19
192,-1909,-892,870,-367,-150,2025-11-15_23-12-59,20
289,-2494,-955,-965,-798,-117,2025-11-15_23-12-59,21
599,-1948,-491,-503,317,-192,2025-11-15_23-12-59,22
74,-1876,-619,1137,694,137,2025-11-15_23-12-59,23
262,-1656,-820,-792,-556,106,2025-11-15_23-12-59,24
227,-1939,-443,-422,162,-86,2025-11-15_23-12-59,25
207,-1650,-727,-50,904,-110,2025-11-15_23-12-59,26
394,-1600,-999,-525,-197,33,2025-11-15_23-12-59,27
437,-1838,-535,-293,-180,18,2025-11-15_23-12-59,28
378,-1668,-926,724,1733,232,2025-11-15_23-12-59,29
185,-1338,-1428,-296,1229,116,2025-11-15_23-12-59,30
341,-1940,-750,-389,101,-77,2025-11-15_23-12-59,31
379,-1737,-951,623,1986,523,2025-11-15_23-12-59,32
242,-2289,-893,-939,140,496,2025-11-15_23-12-59,33
495,-1880,-461,-248,314,-88,2025-11-15_23-12-59,34
36,-1828,-899,598,1767,-42,2025-11-15_23-12-59,35
503,-1908,-836,-831,-279,239,2025-11-15_23-12-59,36
28,-1729,-732,202,91,-220,2025-11-15_23-12-59,37
-30,-1463,-996,-220,329,19,2025-11-15_23-12-59,38
664,-1925,-460,-367,222,-122,2025-11-15_23-12-59,39
130,-1750,-918,1137,379,-72,2025-11-15_23-12-59,40
406,-2480,-1277,-789,-28,213,2025-11-15_23-12-59,41
-56,-1806,-975,-272,-39,-136,2025-11-15_23-12-59,42
149,-1638,-874,1152,108,-132,2025-11-15_23-12-59,43
545,-1749,-623,-454,-6,-60,2025-11-15_23-12-59,44
317,-1740,-844,267,805,124,2025-11-15_23-12-59,45
221,-1876,-785,-851,-365,218,2025-11-15_23-12-59,46
613,-1877,-436,-312,611,-352,2025-11-15_23-12-59,47
198,-1821,-764,809,1416,251,2025-11-15_23-12-59,48
354,-1872,-701,-541,143,184,2025-11-15_23-12-59,49
109,-1682,-657,132,1320,-65,2025-11-15_23-12-59,50
-8,-1457,-1025,641,555,-73,2025-11-15_23-12-59,51
320,-1895,-541,-334,164,38,2025-11-15_23-12-59,52
-40,-1711,-753,422,952,-89,2025-11-15_23-12-59,53
144,-1805,-906,-445,-1184,-181,2025-11-15_23-12-59,54
394,-1967,-289,-195,77,-179,2025-11-15_23-12-59,55
226,-1793,-722,-395,372,-365,2025-11-15_23-13-59,0
172,-1522,-1098,-220,-155,-61,2025-11-15_23-13-59,1
486,-1979,-688,-305,-96,-138,2025-11-15_23-13-59,2
193,-1986,-730,1061,903,105,2025-11-15_23-13-59,3
407,-1938,-414,-725,-423,50,2025-11-15_23-13-59,4
-289,-2093,-69,-668,1132,-396,2025-11-15_23-13-59,5
127,-1655,-1115,-208,579,28,2025-11-15_23-13-59,6
497,-1906,-825,-452,727,-177,2025-11-15_23-13-59,7
-29,-1843,-593,885,1094,165,2025-11-15_23-13-59,8
308,-1978,-637,-385,594,-40,2025-11-15_23-13-59,9
162,-1914,-735,724,1170,-123,2025-11-15_23-13-59,10
267,-2127,-812,-193,-740,291,2025-11-15_23-13-59,11
404,-1973,-399,-240,234,-93,2025-11-15_23-13-59,12
-63,-2065,-461,1302,1181,-178,2025-11-15_23-13-59,13
347,-1859,-652,-436,-287,54,2025-11-15_23-13-59,14
212,-1782,-902,-485,-36,-340,2025-11-15_23-13-59,15
114,-1549,-943,-130,341,-261,2025-11-15_23-13-59,16
454,-1907,-769,-371,372,-106,2025-11-15_23-13-59,17
78,-2011,-650,1150,846,61,2025-11-15_23-13-59,18
420,-1928,-620,-457,-316,1,2025-11-15_23-13-59,19
-52,-1898,-901,-537,448,-64,2025-11-15_23-13-59,20
161,-1718,-838,455,37,107,2025-11-15_23-13-59,21
286,-1873,-506,-169,158,-95,2025-11-15_23-13-59,22
240,-1740,-712,713,1082,151,2025-11-15_23-13-59,23
-52,-1871,-834,-704,-316,212,2025-11-15_23-13-59,24
-108,-2632,-626,-580,1351,-434,2025-11-15_23-13-59,25
307,-1806,-742,994,405,353,2025-11-15_23-13-59,26
404,-1902,-394,-208,80,28,2025-11-15_23-13-59,27
232,-1851,-749,758,1753,388,2025-11-15_23-13-59,28
502,-2279,-952,-576,-121,302,2025-11-15_23-13-59,29
313,-2385,-689,-329,34,-463,2025-11-15_23-13-59,30
147,-1576,-1054,606,922,268,2025-11-15_23-13-59,31
355,-1862,-683,-363,-58,-9,2025-11-15_23-13-59,32
142,-1881,-1147,1011,1076,46,2025-11-15_23-13-59,33
344,-2313,-822,-740,-391,241,2025-11-15_23-13-59,34
346,-1917,-741,-170,4,-67,2025-11-15_23-13-59,35
222,-1665,-729,839,-497,-141,2025-11-15_23-13-59,36
470,-1864,-574,-241,6,-179,2025-11-15_23-13-59,37
-99,-2021,-762,924,-162,-155,2025-11-15_23-13-59,38
522,-1952,-392,-580,-223,33,2025-11-15_23-13-59,39
236,-2170,-659,-491,470,-227,2025-11-15_23-13-59,40
-30,-1552,-1151,-437,364,-197,2025-11-15_23-13-59,41
475,-1900,-738,-237,180,-51,2025-11-15_23-13-59,42
-18,-1852,-863,1069,862,151,2025-11-15_23-13-59,43
339,-2001,-792,-508,28,52,2025-11-15_23-13-59,44
61,-1710,-627,-340,270,-243,2025-11-15_23-13-59,45
10,-1702,-850,-619,-214,-19,2025-11-15_23-13-59,46
580,-1980,-607,-366,392,-95,2025-11-15_23-13-59,47
292,-2001,-651,1096,1599,361,2025-11-15_23-13-59,48
331,-1923,-531,-425,304,24,2025-11-15_23-13-59,49
213,-1859,-669,650,1926,352,2025-11-15_23-13-59,50
71,-2042,-882,-815,-52,334,2025-11-15_23-13-59,51
-5,-1771,-763,-697,1251,-251,2025-11-15_23-13-59,52
115,-1530,-948,-447,-43,23,2025-11-15_23-13-59,53
594,-1919,-550,-335,561,-127,2025-11-15_23-13-59,54
226,-1890,-667,797,188,-306,2025-11-15_23-13-59,55
500,-1889,-585,-290,-327,-132,2025-11-15_23-13-59,56
353,-1864,-310,-273,246,-18,2025-11-15_23-15-00,0
78,-1903,-728,733,648,21,2025-11-15_23-15-00,1
736,-1877,-874,-648,-324,98,2025-11-15_23-15-00,2
465,-1892,-822,-414,480,-248,2025-11-15_23-15-00,3
350,-1854,-881,398,649,65,2025-11-15_23-15-00,4
365,-1954,-777,-566,350,-44,2025-11-15_23-15-00,5
341,-1513,-977,6,1289,-36,2025-11-15_23-15-00,6
304,-1588,-916,-537,527,151,2025-11-15_23-15-00,7
412,-1937,-576,-317,725,-100,2025-11-15_23-15-00,8
338,-1949,-597,1010,1164,440,2025-11-15_23-15-00,9
354,-1916,-574,-512,138,76,2025-11-15_23-15-00,10
309,-1607,-637,-302,1011,-273,2025-11-15_23-15-00,11
115,-1827,-819,-581,-306,124,2025-11-15_23-15-00,12
602,-1909,-606,-437,506,-82,2025-11-15_23-15-00,13
-257,-1915,-632,592,18,-282,2025-11-15_23-15-00,14
426,-1781,-461,-257,49,-128,2025-11-15_23-15-00,15
126,-1743,-839,722,-548,-508,2025-11-15_23-15-00,16
127,-2084,-704,-645,-864,55,2025-11-15_23-15-00,17
516,-1900,-184,-430,326,-133,2025-11-15_23-15-00,18
110,-1980,-662,1393,601,207,2025-11-15_23-15-00,19
477,-1836,-563,-733,-323,26,2025-11-15_23-15-00,20
-328,-1992,-567,-830,1553,-683,2025-11-15_23-15-00,21
193,-1875,-838,1766,1120,241,2025-11-15_23-15-00,22
364,-1982,-530,-665,-361,64,2025-11-15_23-15-00,23
-336,-2101,-931,-549,637,-596,2025-11-15_23-15-00,24
313,-1925,-621,1621,1148,561,2025-11-15_23-15-00,25
277,-1926,-860,-545,421,168,2025-11-15_23-15-00,26
145,-1800,-651,166,1624,-56,2025-11-15_23-15-00,27
30,-1384,-1099,780,-391,-293,2025-11-15_23-15-00,28
283,-1909,-462,-566,324,-79,2025-11-15_23-15-00,29
1440,-2592,-688,-667,776,-134,2025-11-15_23-15-00,30
406,-1816,-611,1708,-104,-157,2025-11-15_23-15-00,31
349,-1902,-538,-528,-2,36,2025-11-15_23-15-00,32
628,-1992,-1054,-771,1004,-514,2025-11-15_23-15-00,33
357,-1690,-703,1521,160,105,2025-11-15_23-15-00,34
355,-1994,-497,-517,44,-27,2025-11-15_23-15-00,35
195,-2027,-790,-789,640,-428,2025-11-15_23-15-00,36
197,-1932,-779,1401,70,368,2025-11-15_23-15-00,37
442,-2054,-532,-654,594,-87,2025-11-15_23-15-00,38
660,-2571,-813,-874,747,-553,2025-11-15_23-15-00,39
290,-1975,-468,1466,1029,485,2025-11-15_23-15-00,40
233,-1900,-553,-615,451,111,2025-11-15_23-15-00,41
144,-1570,-706,185,1358,-78,2025-11-15_23-15-00,42
225,-1613,-915,-672,612,90,2025-11-15_23-15-00,43
354,-1906,-624,-314,134,-2,2025-11-15_23-15-00,44
-42,-1783,-667,531,-132,-422,2025-11-15_23-15-00,45
423,-1502,-892,-19,-343,-270,2025-11-15_23-15-00,46
477,-1845,-623,-247,-310,-192,2025-11-15_23-15-00,47
69,-1727,-850,-46,77,-342,2025-11-15_23-15-00,48
110,-1533,-868,658,222,-66,2025-11-15_23-15-00,49
359,-1876,-409,-541,330,-36,2025-11-15_23-15-00,50
-21,-1860,-1050,-1035,1113,-302,2025-11-15_23-15-00,51
35,-1752,-620,955,175,110,2025-11-15_23-15-00,52
324,-1911,-385,-607,411,-120,2025-11-15_23-15-00,53
165,-1833,-784,-512,792,-270,2025-11-15_23-15-00,54
288,-1725,-792,1529,-317,384,2025-11-15_23-15-00,55
340,-1809,-352,-361,175,24,2025-11-15_23-15-00,56
128,-1880,-232,-416,-562,-65,2025-11-15_23-16-00,0
-47,-1757,-44,-518,-85,-286,2025-11-15_23-16-00,1
166,-2345,-696,-433,-1306,-80,2025-11-15_23-16-00,2
854,-1830,-235,-385,-511,-170,2025-11-15_23-16-00,3
-70,-1916,-653,1007,322,71,2025-11-15_23-16-00,4
328,-1905,-404,-308,63,-98,2025-11-15_23-16-00,5
-74,-1903,-501,823,45,-34,2025-11-15_23-16-00,6
131,-2290,-744,-512,-977,97,2025-11-15_23-16-00,7
181,-2054,-348,-530,182,-202,2025-11-15_23-16-00,8
-7,-2042,-471,1492,1021,302,2025-11-15_23-16-00,9
70,-1966,-476,-728,-346,112,2025-11-15_23-16-00,10
215,-1970,-407,-1048,505,-782,2025-11-15_23-16-00,11
297,-1867,-709,1313,383,286,2025-11-15_23-16-00,12
305,-1943,-365,-429,24,-120,2025-11-15_23-16-00,13
343,-1947,-510,820,1337,33,2025-11-15_23-16-00,14
139,-2142,-704,-754,-317,130,2025-11-15_23-16-00,15
-476,-2414,-340,-1159,2248,-590,2025-11-15_23-16-00,16
124,-1902,-589,-43,814,323,2025-11-15_23-16-00,17
313,-1922,-328,-317,4,-121,2025-11-15_23-16-00,18
-32,-2012,-439,1461,812,122,2025-11-15_23-16-00,19
430,-1947,-683,-595,-429,-41,2025-11-15_23-16-00,20
-82,-2341,29,-936,1133,-213,2025-11-15_23-16-00,21
-104,-1737,-788,271,-121,-27,2025-11-15_23-16-00,22
367,-1859,-389,-236,-120,-162,2025-11-15_23-16-00,23
200,-1979,-443,885,1130,130,2025-11-15_23-16-00,24
185,-2629,-653,-672,-421,-105,2025-11-15_23-16-00,25
202,-1923,-798,-216,-651,-190,2025-11-15_23-16-00,26
70,-2013,-525,1824,730,308,2025-11-15_23-16-00,27
342,-1957,-465,-534,-277,-126,2025-11-15_23-16-00,28
35,-1746,-481,-196,2109,-349,2025-11-15_23-16-00,29
292,-1711,-837,-606,800,206,2025-11-15_23-16-00,30
156,-2025,-644,-544,820,-189,2025-11-15_23-16-00,31
305,-1932,-425,1300,992,422,2025-11-15_23-16-00,32
46,-2579,-895,-677,-157,320,2025-11-15_23-16-00,33
710,-2554,-466,-606,589,-430,2025-11-15_23-16-00,34
101,-1895,-652,79,405,-224,2025-11-15_23-16-00,35
352,-1868,-443,-427,653,-1,2025-11-15_23-16-00,36
240,-1931,-590,759,-109,-235,2025-11-15_23-16-00,37
130,-2063,-868,-694,-327,185,2025-11-15_23-16-00,38
303,-1917,-248,-229,543,-275,2025-11-15_23-16-00,39
222,-1857,-826,1449,8,-276,2025-11-15_23-16-00,40
424,-1891,-604,-431,149,-63,2025-11-15_23-16-00,41
-9,-1795,-237,570,523,14,2025-11-15_23-16-00,42
80,-1725,-1038,-572,-390,101,2025-11-15_23-16-00,43
448,-1902,-176,-316,277,-273,2025-11-15_23-16-00,44
-12,-1968,-582,1318,1430,210,2025-11-15_23-16-00,45
331,-1898,-531,-529,389,-84,2025-11-15_23-16-00,46
63,-1811,-658,729,778,42,2025-11-15_23-16-00,47
329,-2165,-825,-599,-346,319,2025-11-15_23-16-00,48
361,-1922,-916,-360,33,-70,2025-11-15_23-16-00,49
8,-1752,-734,548,1221,104,2025-11-15_23-16-00,50
295,-1850,-598,-416,202,63,2025-11-15_23-16-00,51
259,-1885,-603,809,2337,208,2025-11-15_23-16-00,52
62,-2147,-658,-442,-571,446,2025-11-15_23-16-00,53
42,-1717,-844,-443,209,-380,2025-11-15_23-16-00,54
122,-1685,-844,90,8,-266,2025-11-15_23-16-00,55
369,-1922,-407,-186,-34,-44,2025-11-15_23-16-00,56
-42,-2095,-523,1385,287,-55,2025-11-15_23-16-00,57
476,-1865,-781,-549,-231,2,2025-11-15_23-16-00,58
52,-1724,-279,-726,860,-254,2025-11-15_23-16-00,59
-37,-1614,-863,-1071,1645,-388,2025-11-15_23-17-01,0
229,-1515,-1242,-438,-85,-33,2025-11-15_23-17-01,1
427,-1913,-801,-493,420,-197,2025-11-15_23-17-01,2
242,-2039,-649,1131,1424,255,2025-11-15_23-17-01,3
293,-2415,-842,-759,278,400,2025-11-15_23-17-01,4
177,-1573,-1199,-773,2251,-220,2025-11-15_23-17-01,5
97,-1750,-900,1095,633,300,2025-11-15_23-17-01,6
326,-1896,-525,-378,324,-44,2025-11-15_23-17-01,7
397,-2113,-828,1360,1334,-129,2025-11-15_23-17-01,8
220,-2198,-803,-856,-48,397,2025-11-15_23-17-01,9
129,-1850,-507,-617,679,-341,2025-11-15_23-17-01,10
256,-1772,-645,483,-292,-369,2025-11-15_23-17-01,11
420,-1911,-269,-450,-157,-200,2025-11-15_23-17-01,12
128,-1958,-886,1301,-488,-145,2025-11-15_23-17-01,13
187,-2342,-653,-818,-158,203,2025-11-15_23-17-01,14
255,-2216,-830,-670,745,-473,2025-11-15_23-17-01,15
232,-1700,-880,511,742,232,2025-11-15_23-17-01,16
467,-1904,-404,-396,127,-32,2025-11-15_23-17-01,17
248,-1871,-951,1137,1275,80,2025-11-15_23-17-01,18
350,-2247,-894,-783,118,212,2025-11-15_23-17-01,19
185,-1981,-321,-778,578,-338,2025-11-15_23-17-01,20
374,-1661,-1366,-454,-193,43,2025-11-15_23-17-01,21
521,-1982,-578,-476,492,-222,2025-11-15_23-17-01,22
24,-1912,-653,587,1320,181,2025-11-15_23-17-01,23
391,-1861,-467,-329,212,61,2025-11-15_23-17-01,24
320,-1942,-775,905,1256,310,2025-11-15_23-17-01,25
281,-2142,-791,-715,161,489,2025-11-15_23-17-01,26
468,-2325,-389,-720,1163,-342,2025-11-15_23-17-01,27
220,-1577,-1087,-295,-749,-342,2025-11-15_23-17-01,28
483,-1922,-711,-344,-40,-115,2025-11-15_23-17-01,29
138,-1899,-866,1090,868,-251,2025-11-15_23-17-01,30
469,-2140,-1009,-659,-581,89,2025-11-15_23-17-01,31
629,-1825,-402,-207,55,-172,2025-11-15_23-17-01,32
23,-1905,-530,1383,413,-33,2025-11-15_23-17-01,33
398,-1864,-432,-548,159,14,2025-11-15_23-17-01,34
47,-1824,-953,-579,375,-209,2025-11-15_23-17-01,35
281,-1373,-1440,-466,-66,-141,2025-11-15_23-17-01,36
463,-1955,-537,-300,-52,-33,2025-11-15_23-17-01,37
126,-1994,-779,855,1081,198,2025-11-15_23-17-01,38
394,-1861,-788,-628,-180,204,2025-11-15_23-17-01,39
257,-1683,-727,-448,1485,-257,2025-11-15_23-17-01,40
-34,-1625,-715,898,-38,-31,2025-11-15_23-17-01,41
460,-1933,-747,-522,773,-58,2025-11-15_23-17-01,42
154,-2016,-701,1097,2135,397,2025-11-15_23-17-01,43
407,-2018,-631,-706,-29,360,2025-11-15_23-17-01,44
308,-2004,-463,-300,334,-171,2025-11-15_23-17-01,45
155,-2033,-552,1103,1328,-173,2025-11-15_23-17-01,46
424,-2001,-923,-681,-440,217,2025-11-15_23-17-01,47
-112,-1690,-765,-568,207,-200,2025-11-15_23-17-01,48
-44,-1925,-833,1519,418,-148,2025-11-15_23-17-01,49
700,-1889,-786,-545,-466,-109,2025-11-15_23-17-01,50
-71,-2323,-623,-465,389,-458,2025-11-15_23-17-01,51
-32,-1776,-841,480,1098,38,2025-11-15_23-17-01,52
350,-1955,-415,-609,445,-89,2025-11-15_23-17-01,53
66,-1855,-733,376,760,-75,2025-11-15_23-17-01,54
68,-1512,-1121,-374,162,23,2025-11-15_23-17-01,55
585,-1942,-760,-474,695,-111,2025-11-15_23-17-01,56
130,-1890,-242,-426,-572,-75,2025-11-15_23-18-02,0
-37,-1767,-54,-528,-95,-296,2025-11-15_23-18-02,1
176,-2145,-686,-443,-1316,-90,2025-11-15_23-18-02,2
844,-1820,-225,-395,-521,-180,2025-11-15_23-18-02,3
-80,-1906,-643,1017,332,81,2025-11-15_23-18-02,4
318,-1895,-414,-318,73,-108,2025-11-15_23-18-02,5
-84,-1893,-511,833,55,-44,2025-11-15_23-18-02,6
121,-2190,-734,-522,-987,107,2025-11-15_23-18-02,7
171,-2044,-358,-540,192,-212,2025-11-15_23-18-02,8
-17,-2032,-481,1582,1031,312,2025-11-15_23-18-02,9
60,-1956,-486,-738,-356,122,2025-11-15_23-18-02,10
205,-1960,-417,-1058,515,-792,2025-11-15_23-18-02,11
287,-1857,-719,1323,393,296,2025-11-15_23-18-02,12
295,-1933,-375,-439,34,-130,2025-11-15_23-18-02,13
333,-1937,-520,830,1347,43,2025-11-15_23-18-02,14
129,-2132,-714,-764,-317,140,2025-11-15_23-18-02,15
-486,-2404,-350,-1169,2258,-600,2025-11-15_23-18-02,16
114,-1892,-599,-53,824,333,2025-11-15_23-18-02,17
303,-1912,-338,-327,14,-131,2025-11-15_23-18-02,18
-42,-2002,-449,1471,822,132,2025-11-15_23-18-02,19
420,-1937,-693,-605,-439,-51,2025-11-15_23-18-02,20
-92,-2331,39,-946,1143,-223,2025-11-15_23-18-02,21
-114,-1727,-798,281,-131,-37,2025-11-15_23-18-02,22
357,-1849,-399,-246,-120,-172,2025-11-15_23-18-02,23
190,-1969,-453,895,1140,140,2025-11-15_23-18-02,24
175,-2619,-663,-682,-421,-115,2025-11-15_23-18-02,25
192,-1913,-808,-236,-651,-200,2025-11-15_23-18-02,26
60,-2003,-535,1834,740,318,2025-11-15_23-18-02,27
332,-1947,-475,-544,-277,-136,2025-11-15_23-18-02,28
25,-1736,-491,-206,2119,-359,2025-11-15_23-18-02,29
282,-1701,-847,-616,790,216,2025-11-15_23-18-02,30
146,-2015,-654,-554,810,-199,2025-11-15_23-18-02,31
295,-1922,-435,1310,982,432,2025-11-15_23-18-02,32
36,-2569,-905,-687,-167,330,2025-11-15_23-18-02,33
700,-2544,-476,-616,579,-440,2025-11-15_23-18-02,34
91,-1885,-662,89,415,-234,2025-11-15_23-18-02,35
342,-1858,-453,-437,663,-11,2025-11-15_23-18-02,36
230,-1921,-600,769,-109,-245,2025-11-15_23-18-02,37
120,-2053,-878,-704,-327,195,2025-11-15_23-18-02,38
293,-1907,-258,-239,553,-285,2025-11-15_23-18-02,39
212,-1847,-836,1459,18,-286,2025-11-15_23-18-02,40
414,-1881,-614,-441,159,-73,2025-11-15_23-18-02,41
-19,-1785,-247,580,533,24,2025-11-15_23-18-02,42
70,-1715,-1048,-582,-390,111,2025-11-15_23-18-02,43
438,-1892,-186,-326,287,-283,2025-11-15_23-18-02,44
-22,-1958,-592,1328,1440,220,2025-11-15_23-18-02,45
321,-1888,-541,-539,399,-94,2025-11-15_23-18-02,46
53,-1801,-668,739,788,52,2025-11-15_23-18-02,47
319,-2155,-835,-609,-346,329,2025-11-15_23-18-02,48
351,-1912,-926,-370,43,-80,2025-11-15_23-18-02,49
-2,-1742,-744,558,1231,114,2025-11-15_23-18-02,50
285,-1840,-608,-426,212,73,2025-11-15_23-18-02,51
249,-1875,-613,819,2347,218,2025-11-15_23-18-02,52
52,-2137,-668,-452,-571,456,2025-11-15_23-18-02,53
32,-1707,-854,-453,219,-390,2025-11-15_23-18-02,54
112,-1675,-854,100,18,-276,2025-11-15_23-18-02,55
359,-1912,-417,-196,-34,-54,2025-11-15_23-18-02,56
-52,-2085,-533,1395,297,-65,2025-11-15_23-18-02,57
466,-1855,-791,-559,-231,12,2025-11-15_23-18-02,58
42,-1714,-289,-736,870,-264,2025-11-15_23-18-02,59
