ax,ay,az,gx,gy,gz,session,reading_index
574,-1737,815,-28,216,-13,2025-10-24_13-21-00,0
605,-1744,758,9,213,-22,2025-10-24_13-21-00,1
505,-1728,811,6,58,-68,2025-10-24_13-21-00,2
439,-1761,918,-167,35,-38,2025-10-24_13-21-00,3
471,-1759,840,10,93,-74,2025-10-24_13-21-00,4
533,-1728,873,-31,180,-29,2025-10-24_13-21-00,5
612,-1755,762,-24,208,-35,2025-10-24_13-21-00,6
505,-1713,890,-28,243,1,2025-10-24_13-21-00,7
509,-1735,859,-19,218,-22,2025-10-24_13-21-00,8
536,-1728,841,-17,195,-30,2025-10-24_13-21-00,9
506,-1734,855,-19,204,-23,2025-10-24_13-21-00,10
508,-1741,849,-18,213,-19,2025-10-24_13-21-00,11
457,-1761,819,-41,93,-38,2025-10-24_13-21-00,12
409,-1749,873,3,160,-32,2025-10-24_13-21-00,13
485,-1742,857,-12,202,-22,2025-10-24_13-21-00,14
532,-1729,846,-45,251,4,2025-10-24_13-21-00,15
478,-1751,875,-22,225,-16,2025-10-24_13-21-00,16
507,-1732,860,-20,219,-10,2025-10-24_13-21-00,17
504,-1737,856,-20,210,-21,2025-10-24_13-21-00,18
496,-1752,858,-19,209,-20,2025-10-24_13-21-00,19
492,-1732,844,-20,217,-19,2025-10-24_13-21-00,20
397,-1805,827,11,131,-88,2025-10-24_13-21-00,21
648,-1959,165,-185,353,52,2025-10-24_13-21-00,22
32,-2068,-502,282,-1393,-8,2025-10-24_13-21-00,23
337,-2000,-137,-265,679,-271,2025-10-24_13-21-00,24
649,-1786,249,-342,2758,-130,2025-10-24_13-21-00,25
458,-1972,-79,-402,978,-248,2025-10-24_13-21-00,26
992,-1855,413,-168,-634,147,2025-10-24_13-21-00,27
941,-1900,-128,-612,672,-154,2025-10-24_13-21-00,28
892,-1762,463,25,442,7,2025-10-24_13-21-00,29
838,-1743,579,-22,162,-29,2025-10-24_13-21-00,30
805,-1730,647,-1,286,-20,2025-10-24_13-21-00,31
934,-1632,247,-240,162,-344,2025-10-24_13-21-00,32
228,-1596,-1158,-963,1310,-368,2025-10-24_13-21-00,33
463,-1932,216,-1093,-266,-100,2025-10-24_13-21-00,34
591,-2176,67,-615,356,251,2025-10-24_13-21-00,35
166,-1400,60,-603,-1774,289,2025-10-24_13-21-00,36
1059,-1526,-740,3051,-520,1509,2025-10-24_13-21-00,37
1504,-2977,466,-3288,1002,309,2025-10-24_13-21-00,38
486,-1882,-74,-737,197,13,2025-10-24_13-21-00,39
786,-2356,-6,-538,-1141,53,2025-10-24_13-21-00,40
1028,-1635,178,-447,1749,-522,2025-10-24_13-21-00,41
373,-1934,-143,-620,410,72,2025-10-24_13-21-00,42
1268,-2066,-427,-700,-1948,568,2025-10-24_13-21-00,43
904,-1353,-969,2259,-678,1184,2025-10-24_13-21-00,44
538,-1942,-242,-1522,52,-39,2025-10-24_13-21-00,45
500,-1956,176,-838,509,32,2025-10-24_13-21-00,46
354,-1209,36,-266,-1839,297,2025-10-24_13-21-00,47
1109,-1351,-786,2135,-40,1706,2025-10-24_13-21-00,48
506,-2092,-242,-1189,592,-98,2025-10-24_13-21-00,49
288,-2079,-275,-1152,658,261,2025-10-24_13-21-00,50
601,-1499,-183,2271,-534,33,2025-10-24_13-21-00,51
643,-1371,-1009,644,2524,574,2025-10-24_13-21-00,52
464,-1995,-22,-1179,228,-71,2025-10-24_13-21-00,53
651,-1884,187,-120,650,354,2025-10-24_13-21-00,54
808,-1898,-585,1605,-2336,90,2025-10-24_13-21-00,55
509,-1972,-112,-746,285,4,2025-10-24_13-21-00,56
-95,-2681,-790,-1105,-40,362,2025-10-24_13-21-00,57
963,-1775,-654,3594,-469,518,2025-10-24_13-21-00,58
1156,-3186,-262,-3001,897,229,2025-10-24_13-21-00,59
582,-1740,805,-32,210,-18,2025-10-24_13-24-00,0
595,-1749,768,12,208,-25,2025-10-24_13-24-00,1
512,-1733,801,2,65,-72,2025-10-24_13-24-00,2
445,-1768,908,-170,42,-40,2025-10-24_13-24-00,3
478,-1762,830,5,99,-78,2025-10-24_13-24-00,4
540,-1731,863,-35,177,-31,2025-10-24_13-24-00,5
609,-1760,772,-28,212,-39,2025-10-24_13-24-00,6
511,-1719,880,-30,238,-5,2025-10-24_13-24-00,7
515,-1740,849,-22,220,-25,2025-10-24_13-24-00,8
540,-1731,831,-20,199,-33,2025-10-24_13-24-00,9
510,-1738,845,-21,200,-26,2025-10-24_13-24-00,10
512,-1745,839,-20,209,-21,2025-10-24_13-24-00,11
460,-1766,809,-45,90,-41,2025-10-24_13-24-00,12
415,-1752,863,-2,155,-35,2025-10-24_13-24-00,13
490,-1748,847,-15,199,-25,2025-10-24_13-24-00,14
538,-1731,836,-48,245,-2,2025-10-24_13-24-00,15
480,-1755,865,-25,220,-19,2025-10-24_13-24-00,16
511,-1736,850,-23,215,-14,2025-10-24_13-24-00,17
508,-1740,846,-22,205,-23,2025-10-24_13-24-00,18
500,-1755,848,-21,206,-22,2025-10-24_13-24-00,19
495,-1735,834,-23,212,-20,2025-10-24_13-24-00,20
400,-1810,817,8,125,-90,2025-10-24_13-24-00,21
655,-1965,155,-190,340,48,2025-10-24_13-24-00,22
40,-2072,-490,270,-1380,-12,2025-10-24_13-24-00,23
345,-2010,-145,-270,685,-280,2025-10-24_13-24-00,24
655,-1790,255,-350,2740,-135,2025-10-24_13-24-00,25
460,-1975,-85,-410,980,-250,2025-10-24_13-24-00,26
980,-1860,400,-170,-640,150,2025-10-24_13-24-00,27
930,-1910,-135,-620,675,-160,2025-10-24_13-24-00,28
880,-1770,450,20,435,-2,2025-10-24_13-24-00,29
842,-1750,585,-25,170,-30,2025-10-24_13-24-00,30
810,-1735,650,-5,280,-22,2025-10-24_13-24-00,31
940,-1640,250,-245,158,-350,2025-10-24_13-24-00,32
235,-1600,-1140,-970,1300,-370,2025-10-24_13-24-00,33
470,-1940,220,-1080,-270,-105,2025-10-24_13-24-00,34
595,-2180,70,-620,350,245,2025-10-24_13-24-00,35
170,-1410,55,-610,-1780,295,2025-10-24_13-24-00,36
1065,-1530,-730,3040,-530,1500,2025-10-24_13-24-00,37
1490,-2980,470,-3270,990,315,2025-10-24_13-24-00,38
490,-1888,-80,-740,200,10,2025-10-24_13-24-00,39
790,-2360,-10,-540,-1150,45,2025-10-24_13-24-00,40
1030,-1640,180,-450,1750,-515,2025-10-24_13-24-00,41
375,-1940,-150,-625,405,70,2025-10-24_13-24-00,42
1270,-2070,-430,-710,-1950,570,2025-10-24_13-24-00,43
910,-1360,-975,2250,-680,1180,2025-10-24_13-24-00,44
540,-1945,-250,-1515,45,-42,2025-10-24_13-24-00,45
505,-1960,180,-840,515,30,2025-10-24_13-24-00,46
360,-1215,40,-270,-1840,300,2025-10-24_13-24-00,47
1115,-1355,-790,2130,-50,1700,2025-10-24_13-24-00,48
510,-2095,-245,-1190,590,-100,2025-10-24_13-24-00,49
290,-2082,-280,-1145,660,255,2025-10-24_13-24-00,50
605,-1505,-190,2265,-540,30,2025-10-24_13-24-00,51
650,-1375,-1000,640,2515,570,2025-10-24_13-24-00,52
470,-2000,-25,-1180,230,-75,2025-10-24_13-24-00,53
655,-1888,190,-125,645,350,2025-10-24_13-24-00,54
810,-1900,-590,1600,-2340,85,2025-10-24_13-24-00,55
512,-1975,-115,-750,280,-2,2025-10-24_13-24-00,56
-90,-2685,-795,-1110,-45,355,2025-10-24_13-24-00,57
970,-1780,-660,3580,-475,510,2025-10-24_13-24-00,58
1160,-3190,-270,-2990,900,235,2025-10-24_13-24-00,59
575,-1858,-285,3448,-271,627,2025-11-01_00-47-30,0
734,-1653,-812,1080,3283,2167,2025-11-01_00-47-30,1
495,-1999,-612,-1329,1837,102,2025-11-01_00-47-30,2
-140,-2002,-205,-801,1403,-182,2025-11-01_00-47-30,3
-215,-2713,-1119,-1960,272,245,2025-11-01_00-47-30,4
130,-1578,-563,2270,-71,428,2025-11-01_00-47-30,5
475,-1777,-983,3655,-744,841,2025-11-01_00-47-30,6
482,-2232,-300,-946,1120,319,2025-11-01_00-47-30,7
181,-2129,-555,-1107,2090,-62,2025-11-01_00-47-30,8
99,-1974,-204,-913,972,52,2025-11-01_00-47-30,9
-21,-2729,172,-1330,1620,-221,2025-11-01_00-47-30,10
313,-1995,-736,2944,-589,894,2025-11-01_00-47-30,11
631,-2618,717,-1835,-118,-810,2025-11-01_00-47-30,12
272,-1916,-66,-925,-58,-110,2025-11-01_00-47-30,13
80,-2013,-426,-852,-250,-116,2025-11-01_00-47-30,14
412,-1834,-1089,-1216,-1168,-764,2025-11-01_00-47-30,15
651,-1861,-432,3296,113,918,2025-11-01_00-47-30,16
842,-1741,-625,1167,1176,1564,2025-11-01_00-47-30,17
103,-2105,-318,-1186,1671,-23,2025-11-01_00-47-30,18
60,-1902,-12,-778,306,-135,2025-11-01_00-47-30,19
48,-2541,-1479,-1761,1095,223,2025-11-01_00-47-30,20
197,-1518,-131,-160,-489,457,2025-11-01_00-47-30,21
429,-1910,-763,3835,-983,1070,2025-11-01_00-47-30,22
357,-1661,-663,387,2181,420,2025-11-01_00-47-30,23
453,-2219,-609,-1941,1772,-189,2025-11-01_00-47-30,24
-267,-2085,43,-724,1255,76,2025-11-01_00-47-30,25
-110,-1283,-239,-1009,-603,-152,2025-11-01_00-47-30,26
492,-1964,-619,3814,-1275,930,2025-11-01_00-47-30,27
354,-2163,-573,234,1404,-169,2025-11-01_00-47-30,28
-34,-2414,210,-2117,617,-655,2025-11-01_00-47-30,29
257,-2006,-208,-937,-70,3,2025-11-01_00-47-30,30
-199,-2087,-204,-843,-295,-164,2025-11-01_00-47-30,31
1145,-2225,-792,-1472,-1159,-785,2025-11-01_00-47-30,32
850,-1781,306,3038,1028,640,2025-11-01_00-47-30,33
899,-1853,-407,628,3188,1862,2025-11-01_00-47-30,34
297,-2162,-281,-1406,1108,-474,2025-11-01_00-47-30,35
183,-1930,5,-713,265,-130,2025-11-01_00-47-30,36
41,-1977,-1369,-1641,547,192,2025-11-01_00-47-30,37
238,-1675,-335,-1564,-408,153,2025-11-01_00-47-30,38
826,-1872,-529,4045,-1356,1115,2025-11-01_00-47-30,39
389,-1963,-486,1346,2774,1843,2025-11-01_00-47-30,40
98,-2076,-517,-1501,1601,-131,2025-11-01_00-47-30,41
-83,-1934,-16,-665,989,-1,2025-11-01_00-47-30,42
874,-1373,-182,-1415,-755,418,2025-11-01_00-47-30,43
317,-2001,-835,3366,-2574,1079,2025-11-01_00-47-30,44
254,-2065,-776,1135,1167,147,2025-11-01_00-47-30,45
192,-2063,-122,-1306,1225,-322,2025-11-01_00-47-30,46
134,-1976,-143,-852,491,-170,2025-11-01_00-47-30,47
212,-1559,-1189,-1464,604,153,2025-11-01_00-47-30,48
668,-1773,293,1503,2203,252,2025-11-01_00-47-30,49
970,-1868,-592,-380,3086,1596,2025-11-01_00-47-30,50
206,-2059,-270,-1118,1631,-203,2025-11-01_00-47-30,51
629,-1984,0,-876,-940,5,2025-11-01_00-47-30,52
1747,-3495,304,-1655,-2527,136,2025-11-01_00-47-30,53
539,-1986,-588,3550,-1424,1127,2025-11-01_00-47-30,54
758,-2398,-185,-403,1713,503,2025-11-01_00-47-30,55
355,-2039,-247,-1414,1696,-273,2025-11-01_00-47-30,56
110,-1957,105,-853,1188,-5,2025-11-01_00-47-30,57
311,-2921,1149,-351,635,35,2025-11-01_00-47-30,58
310,-2069,-831,2129,495,1281,2025-11-01_00-47-30,59
1144,-1804,-544,-842,-2221,-139,2025-11-01_01-00-54,0
59,-1681,-444,-1271,1508,-648,2025-11-01_01-00-54,1
606,-1967,-870,3551,1763,915,2025-11-01_01-00-54,2
956,-1496,-642,2109,-461,260,2025-11-01_01-00-54,3
-504,-3100,-282,-2176,419,-314,2025-11-01_01-00-54,4
109,-1946,-285,-689,1265,-323,2025-11-01_01-00-54,5
-302,-1497,-210,-616,4114,-860,2025-11-01_01-00-54,6
451,-1876,-831,3509,538,884,2025-11-01_01-00-54,7
1376,-1758,-1346,-1111,888,-82,2025-11-01_01-00-54,8
185,-2130,-106,-1046,-692,-124,2025-11-01_01-00-54,9
475,-1973,-381,-533,-143,-225,2025-11-01_01-00-54,10
-41,-2072,-1256,-1483,287,-711,2025-11-01_01-00-54,11
136,-1658,-116,1992,2056,-27,2025-11-01_01-00-54,12
1152,-1394,-1061,2485,809,1321,2025-11-01_01-00-54,13
-88,-3374,495,-2417,304,63,2025-11-01_01-00-54,14
647,-2046,-73,-550,-2057,-382,2025-11-01_01-00-54,15
195,-1731,-453,-1731,574,-690,2025-11-01_01-00-54,16
230,-2048,-749,3622,-817,400,2025-11-01_01-00-54,17
1533,-1942,-1888,-591,397,-244,2025-11-01_01-00-54,18
220,-2086,-112,-1192,-669,-154,2025-11-01_01-00-54,19
194,-2031,-306,-621,-61,-278,2025-11-01_01-00-54,20
631,-2113,-965,-1887,1817,-1084,2025-11-01_01-00-54,21
748,-2314,-633,2959,2568,888,2025-11-01_01-00-54,22
721,-1793,-806,-261,4266,1101,2025-11-01_01-00-54,23
338,-2110,-253,-770,497,-329,2025-11-01_01-00-54,24
1259,-2019,-228,-803,-2865,-302,2025-11-01_01-00-54,25
341,-2130,-1222,-2038,3262,-798,2025-11-01_01-00-54,26
226,-2040,-236,2991,802,135,2025-11-01_01-00-54,27
859,-1730,-690,2575,22,267,2025-11-01_01-00-54,28
-774,-2907,204,-2292,-432,-307,2025-11-01_01-00-54,29
153,-1972,-373,-524,864,-288,2025-11-01_01-00-54,30
305,-2226,-339,-537,465,-984,2025-11-01_01-00-54,31
778,-2224,-662,2514,2713,-85,2025-11-01_01-00-54,32
315,-1801,-865,783,1916,-147,2025-11-01_01-00-54,33
593,-2029,-121,-1136,-1339,-434,2025-11-01_01-00-54,34
252,-1990,-244,-560,-750,-207,2025-11-01_01-00-54,35
233,-2275,-554,-1665,-286,-814,2025-11-01_01-00-54,36
43,-1788,-190,2209,1952,32,2025-11-01_01-00-54,37
893,-1689,-982,2703,635,504,2025-11-01_01-00-54,38
-537,-2642,479,-2093,-683,287,2025-11-01_01-00-54,39
157,-1818,-65,-976,1443,-68,2025-11-01_01-00-54,40
-1917,-1500,-717,-1720,4742,-1113,2025-11-01_01-00-54,41
301,-2106,-318,3151,92,257,2025-11-01_01-00-54,42
501,-1325,-916,2214,-1132,-148,2025-11-01_01-00-54,43
-707,-2781,-27,-2258,-773,-277,2025-11-01_01-00-54,44
375,-2066,-90,-892,243,-250,2025-11-01_01-00-54,45
283,-2086,-167,-635,-156,-546,2025-11-01_01-00-54,46
-1029,-3117,-978,-1468,8111,-872,2025-11-01_01-00-54,47
1478,-1979,-656,2103,2121,744,2025-11-01_01-00-54,48
329,-2073,-287,-1194,-455,172,2025-11-01_01-00-54,49
684,-1874,-232,-477,-793,-247,2025-11-01_01-00-54,50
568,-1406,-217,-1843,1673,-545,2025-11-01_01-00-54,51
245,-2183,-85,3519,670,442,2025-11-01_01-00-54,52
888,-1534,-862,2317,33,40,2025-11-01_01-00-54,53
-483,-2806,469,-2225,-1652,-127,2025-11-01_01-00-54,54
357,-1927,-4,-828,339,-326,2025-11-01_01-00-54,55
678,-1850,-815,-581,-1988,-232,2025-11-01_01-00-54,56
790,-2170,-531,2101,2946,-220,2025-11-01_01-00-54,57
376,-1678,-776,602,2486,208,2025-11-01_01-00-54,58
1,-2081,14,-1711,-2124,-431,2025-11-01_01-00-54,59
534,-1910,131,541,1015,566,2025-11-03_13-55-03,0
646,-2647,42,-1268,653,-826,2025-11-03_13-55-03,1
469,-1943,-334,-734,220,-235,2025-11-03_13-55-03,2
157,-1687,-149,610,351,560,2025-11-03_13-55-03,3
809,-1341,-680,716,537,1278,2025-11-03_13-55-03,4
490,-1941,-186,-660,1117,-638,2025-11-03_13-55-03,5
25,-1761,182,-345,1422,5,2025-11-03_13-55-03,6
711,-2072,-273,-1512,2182,-663,2025-11-03_13-55-03,7
662,-1867,-477,-717,128,-261,2025-11-03_13-55-03,8
462,-1532,-3,-1147,-463,93,2025-11-03_13-55-03,9
1048,-2044,-552,2698,588,1767,2025-11-03_13-55-03,10
589,-2097,-270,-855,2360,325,2025-11-03_13-55-03,11
525,-1910,-455,-732,430,-225,2025-11-03_13-55-03,12
-129,-2115,109,-796,-105,-140,2025-11-03_13-55-03,13
412,-1446,-294,1047,-221,659,2025-11-03_13-55-03,14
1272,-1057,-572,1460,-600,220,2025-11-03_13-55-03,15
364,-2064,-310,268,-1058,116,2025-11-03_13-55-03,16
265,-2127,306,-952,679,-187,2025-11-03_13-55-03,17
848,-1553,-665,1107,359,1328,2025-11-03_13-55-03,18
400,-2123,-299,-1127,126,-613,2025-11-03_13-55-03,19
417,-1921,-38,-797,250,-158,2025-11-03_13-55-03,20
968,-1660,-370,-242,2728,674,2025-11-03_13-55-03,21
264,-2024,-212,-371,-78,74,2025-11-03_13-55-03,22
829,-1807,-631,2643,-343,1547,2025-11-03_13-55-03,23
826,-2488,-156,-1859,1768,-1001,2025-11-03_13-55-03,24
226,-1976,-316,-857,426,-213,2025-11-03_13-55-03,25
745,-1601,-780,1804,-3909,-183,2025-11-03_13-55-03,26
640,-1803,72,-306,-1652,-778,2025-11-03_13-55-03,27
322,-1943,-317,-828,219,-197,2025-11-03_13-55-03,28
69,-1584,-307,-811,126,-213,2025-11-03_13-55-03,29
528,-1563,-791,585,252,761,2025-11-03_13-55-03,30
459,-1916,-404,-773,373,-298,2025-11-03_13-55-03,31
626,-1840,-186,28,2014,540,2025-11-03_13-55-03,32
344,-1919,-17,-451,347,-276,2025-11-03_13-55-03,33
1264,-1947,-395,-1234,-1049,-472,2025-11-03_13-55-03,34
1148,-1762,-833,2740,-671,1680,2025-11-03_13-55-03,35
565,-2050,-468,-1287,703,-642,2025-11-03_13-55-03,36
427,-1997,180,181,-1063,386,2025-11-03_13-55-03,37
614,-1649,-291,1881,-137,867,2025-11-03_13-55-03,38
627,-1186,-1440,-1017,2623,61,2025-11-03_13-55-03,39
341,-1906,-396,-717,295,-346,2025-11-03_13-55-03,40
1371,-1605,-390,-1102,638,-113,2025-11-03_13-55-03,41
911,-1810,-356,2895,390,1624,2025-11-03_13-55-03,42
840,-1432,-1143,-1675,2939,-368,2025-11-03_13-55-03,43
50,-1994,8,-614,164,-162,2025-11-03_13-55-03,44
437,-1931,-102,2272,-454,1062,2025-11-03_13-55-03,45
853,-1318,-742,1826,330,-174,2025-11-03_13-55-03,46
1177,-2917,-104,-2021,486,-1021,2025-11-03_13-55-03,47
454,-2004,-167,-234,-131,153,2025-11-03_13-55-03,48
692,-1586,-1014,2097,39,1368,2025-11-03_13-55-03,49
177,-2204,126,-1378,294,-943,2025-11-03_13-55-03,50
352,-1965,-426,-830,84,-295,2025-11-03_13-55-03,51
336,-1716,-778,-1158,-203,-258,2025-11-03_13-55-03,52
173,-1613,-504,-33,2569,555,2025-11-03_13-55-03,53
1036,-1390,-858,1276,1007,1348,2025-11-03_13-55-03,54
1258,-3173,224,-2332,1346,-1126,2025-11-03_13-55-03,55
115,-2033,-11,-895,94,-384,2025-11-03_13-55-03,56
423,-1927,-164,-703,370,-304,2025-11-03_13-55-03,57
710,-1726,492,-42,644,-8,2025-11-03_13-55-03,58
574,-1947,466,-836,373,-111,2025-11-03_13-55-03,59
245,-1942,-374,-335,-332,-161,2025-11-03_14-06-05,0
-412,-1880,-729,3029,1520,-1879,2025-11-03_14-06-05,1
-152,-2395,38,-1454,-1218,1010,2025-11-03_14-06-05,2
174,-1939,-425,-835,90,307,2025-11-03_14-06-05,3
488,-1746,-165,-1002,1247,370,2025-11-03_14-06-05,4
-9,-2101,123,223,-2321,-246,2025-11-03_14-06-05,5
14,-1965,-656,-685,-280,164,2025-11-03_14-06-05,6
575,-1989,-136,-742,540,135,2025-11-03_14-06-05,7
-255,-2031,-531,2125,602,-1422,2025-11-03_14-06-05,8
271,-2491,-420,-1189,-770,635,2025-11-03_14-06-05,9
353,-2049,-56,-752,1101,-113,2025-11-03_14-06-05,10
-253,-1831,-554,1698,673,-677,2025-11-03_14-06-05,11
-76,-1971,-381,-530,208,268,2025-11-03_14-06-05,12
77,-1967,-167,-670,-1519,-58,2025-11-03_14-06-05,13
-238,-1787,-1062,2670,1729,-1207,2025-11-03_14-06-05,14
156,-1947,-392,-733,7,505,2025-11-03_14-06-05,15
-369,-1988,-78,-247,1586,-564,2025-11-03_14-06-05,16
-98,-2037,-728,-582,469,705,2025-11-03_14-06-05,17
661,-1886,-229,-788,669,79,2025-11-03_14-06-05,18
-332,-1823,-726,3254,1082,-1755,2025-11-03_14-06-05,19
240,-2599,-228,-1108,-522,820,2025-11-03_14-06-05,20
327,-1965,-208,-627,-33,217,2025-11-03_14-06-05,21
531,-1618,-899,-428,4180,-19,2025-11-03_14-06-05,22
517,-2063,-290,-318,-573,537,2025-11-03_14-06-05,23
267,-2040,-237,-775,490,129,2025-11-03_14-06-05,24
-75,-2038,-1056,2060,1088,-1500,2025-11-03_14-06-05,25
339,-1513,-2008,-1228,486,461,2025-11-03_14-06-05,26
154,-1997,-319,-399,-675,330,2025-11-03_14-06-05,27
811,-1745,553,76,198,-279,2025-11-03_14-06-05,28
222,-1969,-667,-623,-132,290,2025-11-03_14-06-05,29
282,-2004,-292,-858,1339,227,2025-11-03_14-06-05,30
-55,-1466,-886,795,-71,-643,2025-11-03_14-06-05,31
67,-1480,-2560,-1590,2578,630,2025-11-03_14-06-05,32
390,-1969,-125,-571,3079,-79,2025-11-03_14-06-05,33
48,-1387,-1049,-979,-1211,9,2025-11-03_14-06-05,34
-390,-1450,-1075,2096,-624,-1589,2025-11-03_14-06-05,35
118,-2030,-520,-966,-302,554,2025-11-03_14-06-05,36
60,-1982,-370,-751,516,245,2025-11-03_14-06-05,37
-36,-1595,-1675,566,4397,-296,2025-11-03_14-06-05,38
188,-1960,-172,-357,-190,554,2025-11-03_14-06-05,39
416,-1948,-389,-761,491,215,2025-11-03_14-06-05,40
-121,-1279,-1024,-890,109,-68,2025-11-03_14-06-05,41
-162,-1572,-1063,2420,359,-1479,2025-11-03_14-06-05,42
-843,-2584,-117,-1045,-1343,1123,2025-11-03_14-06-05,43
6,-1976,-63,-241,2369,-87,2025-11-03_14-06-05,44
244,-1612,-555,-901,-9,134,2025-11-03_14-06-05,45
253,-2001,-1042,-692,-135,0,2025-11-03_14-06-05,46
128,-1874,-541,-622,-158,301,2025-11-03_14-06-05,47
353,-2162,119,-889,-1035,334,2025-11-03_14-06-05,48
264,-2093,-81,-867,-3237,-577,2025-11-03_14-06-05,49
174,-1877,-694,-523,-132,389,2025-11-03_14-06-05,50
202,-1899,-225,-927,-429,123,2025-11-03_14-06-05,51
-692,-1702,-1030,2849,1243,-1648,2025-11-03_14-06-05,52
-29,-2066,-827,-945,-395,512,2025-11-03_14-06-05,53
-183,-2011,3,-428,739,-499,2025-11-03_14-06-05,54
-147,-2334,-301,76,2119,503,2025-11-03_14-06-05,55
438,-1902,-208,-537,172,246,2025-11-03_14-06-05,56
386,-2069,520,2,141,-361,2025-11-03_14-06-05,57
224,-2352,-334,-829,26,911,2025-11-03_14-06-05,58
481,-1945,44,-711,36,165,2025-11-03_14-06-05,59
145,-1948,-97,-931,3101,-183,2025-11-03_14-42-40,0
436,-1504,-1074,2576,-2152,-1120,2025-11-03_14-42-40,1
562,-2407,-89,-1617,-341,-455,2025-11-03_14-42-40,2
412,-1885,-143,-1017,-248,-47,2025-11-03_14-42-40,3
859,-2594,-741,249,927,340,2025-11-03_14-42-40,4
368,-1911,-955,1884,-255,114,2025-11-03_14-42-40,5
500,-2048,-235,-1603,77,-505,2025-11-03_14-42-40,6
249,-1791,-43,-1434,2279,-115,2025-11-03_14-42-40,7
639,-1666,317,-1011,-1001,84,2025-11-03_14-42-40,8
1130,-1813,110,-337,2725,-25,2025-11-03_14-42-40,9
412,-2220,-57,-1363,903,-175,2025-11-03_14-42-40,10
249,-1901,251,-1258,771,-109,2025-11-03_14-42-40,11
819,-5137,-260,352,-1813,114,2025-11-03_14-42-40,12
497,-1530,-1378,2889,836,-42,2025-11-03_14-42-40,13
526,-2010,-375,410,-409,-45,2025-11-03_14-42-40,14
1550,-1603,229,-812,-1788,298,2025-11-03_14-42-40,15
761,-1850,-993,3514,211,324,2025-11-03_14-42-40,16
602,-2656,-288,-1331,1276,233,2025-11-03_14-42-40,17
469,-1992,-283,-1033,617,-61,2025-11-03_14-42-40,18
395,-1994,116,-424,393,-26,2025-11-03_14-42-40,19
784,-1991,-91,149,3007,-768,2025-11-03_14-42-40,20
535,-2141,397,-1499,-18,-288,2025-11-03_14-42-40,21
277,-1986,352,-1469,5556,31,2025-11-03_14-42-40,22
1029,-910,49,-859,-1459,713,2025-11-03_14-42-40,23
470,-1993,-1201,3579,-1415,-178,2025-11-03_14-42-40,24
170,-2029,518,-656,-586,-296,2025-11-03_14-42-40,25
360,-1937,192,-715,131,208,2025-11-03_14-42-40,26
275,-2308,-1046,-1573,-1477,193,2025-11-03_14-42-40,27
943,-2036,-853,3765,-216,-168,2025-11-03_14-42-40,28
236,-2500,-673,-2487,3396,183,2025-11-03_14-42-40,29
410,-1999,-244,-140,953,-103,2025-11-03_14-42-40,30
-45,-2131,-187,-1020,1350,221,2025-11-03_14-42-40,31
650,-1766,-464,2639,904,63,2025-11-03_14-42-40,32
340,-1337,-1424,731,-947,193,2025-11-03_14-42-40,33
343,-1996,-519,-1385,971,-28,2025-11-03_14-42-40,34
807,-1837,-118,-7,-1097,632,2025-11-03_14-42-40,35
377,-1951,209,1282,-972,461,2025-11-03_14-42-40,36
1150,-2257,809,-2644,2094,-560,2025-11-03_14-42-40,37
130,-1955,-397,-949,-2411,-383,2025-11-03_14-42-40,38
-446,-2239,-104,-1819,2578,450,2025-11-03_14-42-40,39
679,-1584,-865,676,4302,1034,2025-11-03_14-42-40,40
286,-1985,-296,-148,369,-101,2025-11-03_14-42-40,41
509,-1956,-78,18,305,-87,2025-11-03_14-42-40,42
597,-1927,-45,-18,240,-41,2025-11-03_14-42-40,43
628,-1912,-7,-16,232,-20,2025-11-03_14-42-40,44
621,-1919,23,-2,217,-22,2025-11-03_14-42-40,45
639,-1916,39,-24,199,-20,2025-11-03_14-42-40,46
662,-1909,48,24,222,-41,2025-11-03_14-42-40,47
723,-1886,48,-83,217,-30,2025-11-03_14-42-40,48
704,-1891,15,-68,171,-17,2025-11-03_14-42-40,49
733,-1885,17,-69,283,-16,2025-11-03_14-42-40,50
696,-1884,-110,-13,226,-3,2025-11-03_14-42-40,51
718,-1895,-147,-34,230,-21,2025-11-03_14-42-40,52
710,-1896,-143,-8,170,-27,2025-11-03_14-42-40,53
697,-1885,-197,-19,210,-18,2025-11-03_14-42-40,54
682,-1898,-176,-22,171,-14,2025-11-03_14-42-40,55
749,-1870,-224,-42,168,-28,2025-11-03_14-42-40,56
688,-1875,-196,-7,120,-18,2025-11-03_14-42-40,57
668,-1886,-193,-1,285,-1,2025-11-03_14-42-40,58
681,-1903,-195,-11,111,-35,2025-11-03_14-42-40,59
-949,-2177,-524,-1601,47,-880,2025-11-03_15-25-08,0
937,-2075,-261,2573,594,1812,2025-11-03_15-25-08,1
1507,-1750,-364,1401,1438,2974,2025-11-03_15-25-08,2
736,-2815,41,-1972,1395,-1178,2025-11-03_15-25-08,3
193,-2152,-162,-1321,1370,-613,2025-11-03_15-25-08,4
291,-1917,-365,-833,1382,-238,2025-11-03_15-25-08,5
945,-2167,-667,-905,-1733,-618,2025-11-03_15-25-08,6
733,-1954,-26,3030,-242,1607,2025-11-03_15-25-08,7
173,-1408,-325,824,1240,2037,2025-11-03_15-25-08,8
772,-2997,-289,-2369,3033,-683,2025-11-03_15-25-08,9
-25,-1960,-659,-1224,2167,-174,2025-11-03_15-25-08,10
555,-1991,-159,-741,560,-350,2025-11-03_15-25-08,11
1733,-1989,-451,-1153,-559,-336,2025-11-03_15-25-08,12
1158,-3139,1261,-532,-2298,-783,2025-11-03_15-25-08,13
1066,-2166,-382,3280,1331,1638,2025-11-03_15-25-08,14
431,-1901,-848,1708,262,1702,2025-11-03_15-25-08,15
233,-2950,-83,-2432,3096,-815,2025-11-03_15-25-08,16
185,-2128,-615,-1288,1856,-304,2025-11-03_15-25-08,17
391,-1959,-119,-760,827,-487,2025-11-03_15-25-08,18
1646,-2130,-618,-1077,-1458,-187,2025-11-03_15-25-08,19
445,-1525,-126,-1272,1390,-493,2025-11-03_15-25-08,20
1004,-1722,-280,2535,2227,2233,2025-11-03_15-25-08,21
716,-2614,-170,-706,691,125,2025-11-03_15-25-08,22
841,-2280,-494,-1536,955,-960,2025-11-03_15-25-08,23
398,-1939,-465,-794,741,-224,2025-11-03_15-25-08,24
291,-2000,-214,-676,628,-198,2025-11-03_15-25-08,25
1564,-2656,1160,-1442,-1442,-564,2025-11-03_15-25-08,26
1029,-2160,-662,2963,953,2477,2025-11-03_15-25-08,27
778,-1524,-314,670,1189,3429,2025-11-03_15-25-08,28
1245,-2621,687,-2192,1134,-1085,2025-11-03_15-25-08,29
311,-1963,-300,-939,563,-466,2025-11-03_15-25-08,30
336,-1937,-424,-283,113,-95,2025-11-03_15-25-08,31
1159,-2229,-1311,-1899,1948,-408,2025-11-03_15-25-08,32
1333,-1952,-833,3086,1336,2426,2025-11-03_15-25-08,33
1167,-1663,-848,3223,-1271,2447,2025-11-03_15-25-08,34
1723,-2723,-809,-1444,61,-289,2025-11-03_15-25-08,35
601,-1927,-178,306,-392,-559,2025-11-03_15-25-08,36
607,-1909,-367,-748,192,-163,2025-11-03_15-25-08,37
1029,-2274,-172,-1912,3903,-859,2025-11-03_15-25-08,38
2064,-1839,-1142,-2427,-1778,-463,2025-11-03_15-25-08,39
448,-1654,-1337,2250,-437,1453,2025-11-03_15-25-08,40
1838,-1653,-598,3024,2232,3008,2025-11-03_15-25-08,41
1385,-1713,-547,-1242,3386,1792,2025-11-03_15-25-08,42
654,-2276,-462,-1567,1421,-816,2025-11-03_15-25-08,43
311,-1903,-294,-756,652,-333,2025-11-03_15-25-08,44
821,-2059,-419,-1482,2878,-398,2025-11-03_15-25-08,45
275,-1339,-42,-459,1273,-344,2025-11-03_15-25-08,46
1167,-1763,-340,2272,1115,2760,2025-11-03_15-25-08,47
685,-2136,-1583,-1112,764,357,2025-11-03_15-25-08,48
298,-2124,-443,-1486,912,-670,2025-11-03_15-25-08,49
-103,-1974,-262,-572,861,-59,2025-11-03_15-25-08,50
604,-2061,-689,-1166,-1079,-713,2025-11-03_15-25-08,51
807,-1902,-497,2496,-56,1657,2025-11-03_15-25-08,52
1025,-1614,-629,1594,-226,3156,2025-11-03_15-25-08,53
1444,-2249,137,-1924,2039,-591,2025-11-03_15-25-08,54
-5,-1985,-395,-447,933,-233,2025-11-03_15-25-08,55
928,-2050,-478,-1546,2642,-540,2025-11-03_15-25-08,56
295,-2294,-27,-1543,163,-1032,2025-11-03_15-25-08,57
1408,-1797,-484,2472,1339,2383,2025-11-03_15-25-08,58
-362,-2979,32,-2164,2262,-1115,2025-11-03_15-25-08,59
1506,-1588,-940,2392,806,776,2025-11-03_18-58-54,0
563,-2476,-30,-1928,496,199,2025-11-03_18-58-54,1
495,-1886,-489,-402,187,-354,2025-11-03_18-58-54,2
1127,-1491,-1165,-1374,-436,-829,2025-11-03_18-58-54,3
1119,-2037,-1067,2302,3658,-261,2025-11-03_18-58-54,4
1638,-1372,-977,2099,2130,1737,2025-11-03_18-58-54,5
234,-2129,-275,-1871,-636,-251,2025-11-03_18-58-54,6
444,-1893,-229,-424,-291,-194,2025-11-03_18-58-54,7
-2540,-3656,-1218,-2680,5706,-631,2025-11-03_18-58-54,8
1021,-1797,-1078,3394,1852,1141,2025-11-03_18-58-54,9
-88,-3115,442,-2141,-1727,-130,2025-11-03_18-58-54,10
282,-1854,-100,-979,234,-194,2025-11-03_18-58-54,11
-92,-3868,-1935,-2132,2819,-787,2025-11-03_18-58-54,12
383,-2103,-1058,4106,916,1022,2025-11-03_18-58-54,13
331,-1995,-811,264,292,-337,2025-11-03_18-58-54,14
-51,-2313,85,-2002,-402,89,2025-11-03_18-58-54,15
206,-1875,-374,-291,316,-56,2025-11-03_18-58-54,16
177,-2448,-466,-1209,1633,-1591,2025-11-03_18-58-54,17
691,-843,-824,-346,2537,-427,2025-11-03_18-58-54,18
1901,-1425,-1404,2851,3649,1344,2025-11-03_18-58-54,19
1061,-2328,-128,-1998,-165,-154,2025-11-03_18-58-54,20
418,-1863,134,-918,-79,-81,2025-11-03_18-58-54,21
-42,-2173,-521,-633,1691,-189,2025-11-03_18-58-54,22
289,-2239,-570,176,-2639,-447,2025-11-03_18-58-54,23
541,-1367,-964,1588,1559,215,2025-11-03_18-58-54,24
1044,-1357,-1050,2824,1775,348,2025-11-03_18-58-54,25
3733,-1407,-1849,-1197,2503,903,2025-11-03_18-58-54,26
331,-2011,-551,-603,433,-138,2025-11-03_18-58-54,27
1481,-1825,-801,-730,-1762,-125,2025-11-03_18-58-54,28
392,-1859,204,-2255,6462,-912,2025-11-03_18-58-54,29
1557,-1980,-812,2955,3309,1104,2025-11-03_18-58-54,30
1260,-3041,423,-2037,-1722,-106,2025-11-03_18-58-54,31
541,-1982,-132,-831,164,-156,2025-11-03_18-58-54,32
-253,-2159,-982,-1088,2816,-287,2025-11-03_18-58-54,33
-1304,-4403,-63,-2274,3380,-671,2025-11-03_18-58-54,34
401,-2217,-990,4273,657,1084,2025-11-03_18-58-54,35
984,-1132,-703,800,734,1014,2025-11-03_18-58-54,36
14,-2093,-105,-1570,332,200,2025-11-03_18-58-54,37
160,-2050,-339,-453,-649,-168,2025-11-03_18-58-54,38
1653,-2045,-1406,-1286,-1716,-1004,2025-11-03_18-58-54,39
1265,-2354,-849,3042,2828,-202,2025-11-03_18-58-54,40
1105,-1407,-880,217,858,-147,2025-11-03_18-58-54,41
240,-2120,-207,-1492,-1154,-415,2025-11-03_18-58-54,42
249,-1870,-299,-730,378,-106,2025-11-03_18-58-54,43
932,-1808,-985,-105,-2250,-220,2025-11-03_18-58-54,44
645,-1698,-815,2050,1226,-104,2025-11-03_18-58-54,45
743,-1270,-1176,3295,1574,274,2025-11-03_18-58-54,46
3322,-3362,325,-1349,-555,504,2025-11-03_18-58-54,47
431,-1920,-286,-388,259,-198,2025-11-03_18-58-54,48
1535,-1972,-1210,-1317,-585,-1149,2025-11-03_18-58-54,49
1054,-675,-838,313,3374,-147,2025-11-03_18-58-54,50
757,-1370,-1361,5095,1833,1259,2025-11-03_18-58-54,51
322,-1905,-1004,262,548,-359,2025-11-03_18-58-54,52
490,-2784,369,-2016,-1152,-702,2025-11-03_18-58-54,53
1368,-1693,-875,-358,-2779,-1114,2025-11-03_18-58-54,54
1336,-1685,-314,-167,-429,-21,2025-11-03_18-58-54,55
1648,-1228,-1376,-2403,721,-809,2025-11-03_18-58-54,56
706,-1283,-94,-1959,657,-799,2025-11-03_18-58-54,57
358,-2162,-1035,4870,292,1055,2025-11-03_18-58-54,58
625,-1383,-1137,3718,-533,-349,2025-11-03_18-58-54,59
613,-2159,-429,-856,-1586,-578,2025-11-03_18-59-58,0
697,-1831,-145,-300,-591,-136,2025-11-03_18-59-58,1
-210,-2220,-205,-1034,-160,-965,2025-11-03_18-59-58,2
108,-1467,-345,85,-1269,-278,2025-11-03_18-59-58,3
318,-1681,-1035,3341,-1646,-1080,2025-11-03_18-59-58,4
16,-2934,-62,-2407,-250,-661,2025-11-03_18-59-58,5
772,-1793,-164,-501,157,-361,2025-11-03_18-59-58,6
625,-1846,-777,-635,-1726,-413,2025-11-03_18-59-58,7
153,-1074,-379,305,342,-5,2025-11-03_18-59-58,8
346,-1687,-960,3792,1542,571,2025-11-03_18-59-58,9
1067,-2623,-541,-1587,-1443,-482,2025-11-03_18-59-58,10
1259,-1795,-466,-348,-1611,-442,2025-11-03_18-59-58,11
756,-1932,-378,-759,-89,-272,2025-11-03_18-59-58,12
205,-2008,-1502,-2672,2614,-694,2025-11-03_18-59-58,13
117,-2405,-872,4804,-329,523,2025-11-03_18-59-58,14
54,-2052,-812,1415,-773,-1507,2025-11-03_18-59-58,15
942,-2066,-210,-1059,-978,-478,2025-11-03_18-59-58,16
674,-1924,-201,-413,-374,-204,2025-11-03_18-59-58,17
1561,-1739,-1312,-1834,1853,-1192,2025-11-03_18-59-58,18
281,-1829,-241,1416,-1310,-152,2025-11-03_18-59-58,19
757,-1603,-935,3081,122,-799,2025-11-03_18-59-58,20
-347,-3415,-250,-1827,-3075,-755,2025-11-03_18-59-58,21
401,-1870,-85,-812,-174,-344,2025-11-03_18-59-58,22
1161,-1960,-502,-556,-267,-429,2025-11-03_18-59-58,23
-401,-2465,2690,-1623,-620,-292,2025-11-03_18-59-58,24
144,-1861,-1023,4162,1794,922,2025-11-03_18-59-58,25
1187,-2515,-147,-1438,-1251,-579,2025-11-03_18-59-58,26
825,-1840,-319,-462,-1892,-554,2025-11-03_18-59-58,27
710,-1924,-403,-559,-365,-265,2025-11-03_18-59-58,28
332,-1340,-556,90,1580,-124,2025-11-03_18-59-58,29
125,-1616,-1220,3702,2420,20,2025-11-03_18-59-58,30
2198,-2084,-1523,-802,-1244,-728,2025-11-03_18-59-58,31
904,-1997,-294,-786,-1355,-442,2025-11-03_18-59-58,32
776,-1903,-121,-290,-394,-182,2025-11-03_18-59-58,33
129,-1239,-599,-1840,-121,-663,2025-11-03_18-59-58,34
179,-2338,-435,3945,-874,337,2025-11-03_18-59-58,35
42,-1533,-855,2022,-1604,-1449,2025-11-03_18-59-58,36
1011,-2558,-393,-1867,-789,-277,2025-11-03_18-59-58,37
619,-1780,-89,-300,-462,-406,2025-11-03_18-59-58,38
660,-1976,-549,-792,-1742,-413,2025-11-03_18-59-58,39
283,-701,-592,-757,821,-28,2025-11-03_18-59-58,40
-4,-1880,-1002,3711,1619,353,2025-11-03_18-59-58,41
1019,-3003,540,-1729,-2838,-399,2025-11-03_18-59-58,42
972,-1820,-345,-399,-1719,-490,2025-11-03_18-59-58,43
528,-1968,-573,-556,-324,-229,2025-11-03_18-59-58,44
-983,-4883,251,-1298,2081,-335,2025-11-03_18-59-58,45
-139,-2363,-847,4953,-490,392,2025-11-03_18-59-58,46
29,-1433,-1062,1939,-1998,-2202,2025-11-03_18-59-58,47
-75,-2999,-325,-1716,-1843,-539,2025-11-03_18-59-58,48
414,-1858,-153,-764,-320,-335,2025-11-03_18-59-58,49
1864,-1864,-563,-469,-770,-418,2025-11-03_18-59-58,50
1,-1651,-179,-1858,-354,-259,2025-11-03_18-59-58,51
30,-2072,-807,3832,1143,212,2025-11-03_18-59-58,52
1555,-1547,-2534,-1060,-946,-756,2025-11-03_18-59-58,53
775,-1868,-307,-895,-1141,-544,2025-11-03_18-59-58,54
913,-1761,-151,-80,-773,-311,2025-11-03_18-59-58,55
580,-1860,-280,3450,-270,630,2025-11-03_19-01-00,0
730,-1655,-810,1075,3290,2160,2025-11-03_19-01-00,1
500,-1990,-610,-1330,1840,100,2025-11-03_19-01-00,2
-145,-2000,-200,-810,1400,-180,2025-11-03_19-01-00,3
-210,-2710,-1120,-1965,270,250,2025-11-03_19-01-00,4
135,-1580,-560,2275,-70,430,2025-11-03_19-01-00,5
470,-1770,-980,3650,-740,840,2025-11-03_19-01-00,6
480,-2230,-300,-950,1125,320,2025-11-03_19-01-00,7
180,-2130,-550,-1100,2095,-60,2025-11-03_19-01-00,8
100,-1970,-200,-910,970,50,2025-11-03_19-01-00,9
-15,-2730,170,-1330,1625,-220,2025-11-03_19-01-00,10
310,-1990,-730,2940,-590,890,2025-11-03_19-01-00,11
630,-2610,710,-1830,-120,-810,2025-11-03_19-01-00,12
270,-1910,-60,-920,-60,-110,2025-11-03_19-01-00,13
80,-2010,-420,-850,-250,-115,2025-11-03_19-01-00,14
410,-1830,-1080,-1210,-1160,-760,2025-11-03_19-01-00,15
650,-1860,-430,3290,110,910,2025-11-03_19-01-00,16
840,-1740,-620,1160,1170,1560,2025-11-03_19-01-00,17
100,-2100,-310,-1180,1670,-20,2025-11-03_19-01-00,18
60,-1900,-10,-770,300,-130,2025-11-03_19-01-00,19
50,-2540,-1470,-1760,1090,220,2025-11-03_19-01-00,20
190,-1510,-130,-160,-480,450,2025-11-03_19-01-00,21
420,-1910,-760,3830,-980,1070,2025-11-03_19-01-00,22
350,-1660,-660,380,2180,420,2025-11-03_19-01-00,23
450,-2210,-600,-1940,1770,-180,2025-11-03_19-01-00,24
-260,-2080,40,-720,1250,70,2025-11-03_19-01-00,25
-110,-1280,-230,-1000,-600,-150,2025-11-03_19-01-00,26
490,-1960,-610,3810,-1270,930,2025-11-03_19-01-00,27
350,-2160,-570,230,1400,-160,2025-11-03_19-01-00,28
-30,-2410,210,-2110,610,-650,2025-11-03_19-01-00,29
250,-2000,-200,-930,-70,0,2025-11-03_19-01-00,30
-190,-2080,-200,-840,-290,-160,2025-11-03_19-01-00,31
1140,-2220,-790,-1470,-1150,-780,2025-11-03_19-01-00,32
850,-1780,300,3030,1020,640,2025-11-03_19-01-00,33
890,-1850,-400,620,3180,1860,2025-11-03_19-01-00,34
290,-2160,-280,-1400,1100,-470,2025-11-03_19-01-00,35
180,-1930,0,-710,260,-130,2025-11-03_19-01-00,36
40,-1970,-1360,-1640,540,190,2025-11-03_19-01-00,37
230,-1670,-330,-1560,-400,150,2025-11-03_19-01-00,38
820,-1870,-520,4040,-1350,1110,2025-11-03_19-01-00,39
380,-1960,-480,1340,2770,1840,2025-11-03_19-01-00,40
90,-2070,-510,-1500,1600,-130,2025-11-03_19-01-00,41
-80,-1930,-10,-660,980,0,2025-11-03_19-01-00,42
870,-1370,-180,-1410,-750,410,2025-11-03_19-01-00,43
310,-2000,-830,3360,-2570,1070,2025-11-03_19-01-00,44
250,-2060,-770,1130,1160,140,2025-11-03_19-01-00,45
190,-2060,-120,-1300,1220,-320,2025-11-03_19-01-00,46
130,-1970,-140,-850,490,-170,2025-11-03_19-01-00,47
210,-1550,-1180,-1460,600,150,2025-11-03_19-01-00,48
660,-1770,290,1500,2200,250,2025-11-03_19-01-00,49
970,-1860,-590,-380,3080,1590,2025-11-03_19-01-00,50
200,-2050,-270,-1110,1630,-200,2025-11-03_19-01-00,51
620,-1980,0,-870,-940,0,2025-11-03_19-01-00,52
1740,-3490,300,-1650,-2520,130,2025-11-03_19-01-00,53
530,-1980,-580,3550,-1420,1120,2025-11-03_19-01-00,54
750,-2390,-180,-400,1710,500,2025-11-03_19-01-00,55
350,-2030,-240,-1410,1690,-270,2025-11-03_19-01-00,56
110,-1950,100,-850,1180,0,2025-11-03_19-01-00,57
310,-2920,1140,-350,630,30,2025-11-03_19-01-00,58
310,-2060,-830,2120,490,1280,2025-11-03_19-01-00,59
490,-1747,-1158,4600,442,1250,2025-11-08_13-48-18,0
484,-623,-1579,5068,2061,1223,2025-11-08_13-48-18,1
1323,-769,-1701,2770,1415,1597,2025-11-08_13-48-18,2
2289,-841,-1630,1232,1693,3394,2025-11-08_13-48-18,3
649,-3548,1321,-3291,-60,421,2025-11-08_13-48-18,4
1322,-1419,367,-1625,-917,-68,2025-11-08_13-48-18,5
595,-1794,372,-557,-92,-113,2025-11-08_13-48-18,6
160,-2131,-589,-684,467,-121,2025-11-08_13-48-18,7
783,-2656,-968,-1175,-1584,-653,2025-11-08_13-48-18,8
-130,-858,-420,-1950,-1920,-703,2025-11-08_13-48-18,9
567,-642,-1770,5665,1581,1210,2025-11-08_13-48-18,10
1010,-1129,-2184,-570,966,940,2025-11-08_13-48-18,11
925,-1888,3,-1288,649,248,2025-11-08_13-48-18,12
432,-1867,-121,-355,430,-53,2025-11-08_13-48-18,13
803,-2139,-457,-520,-570,-120,2025-11-08_13-48-18,14
1065,-1690,-1106,-1904,1371,-128,2025-11-08_13-48-18,15
570,-2225,-674,4364,2004,958,2025-11-08_13-48-18,16
475,-541,-1542,3936,1790,523,2025-11-08_13-48-18,17
1534,-1378,-2645,-823,1632,1106,2025-11-08_13-48-18,18
119,-2732,420,-2925,435,183,2025-11-08_13-48-18,19
554,-1643,1083,-947,-379,14,2025-11-08_13-48-18,20
308,-1934,14,-713,967,-90,2025-11-08_13-48-18,21
615,-1708,-773,-873,-934,-177,2025-11-08_13-48-18,22
278,-1546,-1895,-2476,5404,-314,2025-11-08_13-48-18,23
10,645,2247,599,-5002,-9,2025-11-08_13-48-18,24
472,-1983,-1349,6374,1232,1030,2025-11-08_13-48-18,25
629,-1124,-1688,326,-780,119,2025-11-08_13-48-18,26
-344,-3295,129,-2335,-813,-260,2025-11-08_13-48-18,27
327,-1841,520,-966,301,-179,2025-11-08_13-48-18,28
403,-1955,-207,-520,232,-53,2025-11-08_13-48-18,29
-492,-1692,-499,-856,358,-724,2025-11-08_13-48-18,30
61,-1845,-852,-2967,3658,140,2025-11-08_13-48-18,31
512,-1300,-1274,5854,1433,418,2025-11-08_13-48-18,32
84,-926,-1420,1077,-2401,-1227,2025-11-08_13-48-18,33
1684,-1861,-317,-963,-1209,-788,2025-11-08_13-48-18,34
344,-1901,-84,-402,-23,-3,2025-11-08_13-48-18,35
-8,-1998,-244,-463,-61,-63,2025-11-08_13-48-18,36
1032,-2598,-905,-845,1367,-551,2025-11-08_13-48-18,37
185,56,2647,826,-1183,-310,2025-11-08_13-48-18,38
305,-720,-1556,4994,824,245,2025-11-08_13-48-18,39
142,-1343,-1241,308,-1198,-647,2025-11-08_13-48-18,40
319,-3162,506,-3125,-1932,-199,2025-11-08_13-48-18,41
600,-1896,178,-1278,-91,-162,2025-11-08_13-48-18,42
40,-2013,-223,-549,1101,-70,2025-11-08_13-48-18,43
583,-1959,-326,39,-597,-227,2025-11-08_13-48-18,44
1656,-1761,-735,-1228,164,-575,2025-11-08_13-48-18,45
-1290,-3458,-1134,-1746,6354,-352,2025-11-08_13-48-18,46
196,-1727,-1805,5519,3261,1197,2025-11-08_13-48-18,47
715,-871,-1618,1825,-34,-382,2025-11-08_13-48-18,48
-502,-4564,495,-1766,-2075,-1542,2025-11-08_13-48-18,49
605,-2066,-282,-627,-169,-112,2025-11-08_13-48-18,50
-261,-2051,-568,-918,-675,-339,2025-11-08_13-48-18,51
157,-2613,-1353,-1409,-1106,-313,2025-11-08_13-48-18,52
419,-795,305,-1001,-1131,-657,2025-11-08_13-48-18,53
857,-1138,-1659,5584,1612,979,2025-11-08_13-48-18,54
182,-710,-1575,2501,1571,49,2025-11-08_13-48-18,55
1707,-2743,-2146,-1598,-1388,-527,2025-11-08_13-48-18,56
502,-2423,-409,-1116,-1712,-592,2025-11-08_13-48-18,57
562,-1846,149,-357,449,-54,2025-11-08_13-48-18,58
1090,-2040,-901,-911,267,-226,2025-11-08_13-48-18,59
150,-3175,675,-2954,-431,-360,2025-11-08_13-52-18,0
978,-1647,516,-1804,-417,-223,2025-11-08_13-52-18,1
336,-1977,145,-948,502,-172,2025-11-08_13-52-18,2
160,-1978,-335,-757,704,-165,2025-11-08_13-52-18,3
601,-1774,-586,-926,-484,-200,2025-11-08_13-52-18,4
812,-2727,-73,733,-2121,-566,2025-11-08_13-52-18,5
324,-1872,-1049,169,1599,-436,2025-11-08_13-52-18,6
-282,-3216,-28,-2202,-399,-138,2025-11-08_13-52-18,7
278,-1964,-248,-588,57,127,2025-11-08_13-52-18,8
839,-1864,53,-692,-164,-53,2025-11-08_13-52-18,9
227,-1734,356,-452,-1324,-299,2025-11-08_13-52-18,10
199,-2205,-1101,4556,-182,921,2025-11-08_13-52-18,11
243,-1377,-2054,-836,1116,-58,2025-11-08_13-52-18,12
791,-1707,328,-1329,308,41,2025-11-08_13-52-18,13
299,-1920,-186,-977,645,-58,2025-11-08_13-52-18,14
666,-2071,230,-735,540,-236,2025-11-08_13-52-18,15
905,-1099,1,2213,-1904,-326,2025-11-08_13-52-18,16
478,-868,-1548,2402,1265,330,2025-11-08_13-52-18,17
-198,-2961,40,-2575,-1275,-247,2025-11-08_13-52-18,18
491,-1902,-234,-773,19,-126,2025-11-08_13-52-18,19
664,-2035,-80,-656,452,-206,2025-11-08_13-52-18,20
811,-993,599,1044,-3419,-178,2025-11-08_13-52-18,21
74,-1110,-1185,2198,-612,-810,2025-11-08_13-52-18,22
489,-1862,216,-1626,62,-44,2025-11-08_13-52-18,23
429,-1894,-209,-825,328,-27,2025-11-08_13-52-18,24
-359,-1876,-285,-686,-1092,-321,2025-11-08_13-52-18,25
377,-1538,-153,3291,-1419,-51,2025-11-08_13-52-18,26
289,-885,-1384,3043,269,-306,2025-11-08_13-52-18,27
-140,-2963,132,-2190,-1884,-904,2025-11-08_13-52-18,28
441,-1987,-209,-591,-202,-41,2025-11-08_13-52-18,29
396,-1961,-15,-494,-108,52,2025-11-08_13-52-18,30
173,-1729,-131,877,-1337,-542,2025-11-08_13-52-18,31
308,-2041,28,70,1018,192,2025-11-08_13-52-18,32
718,-2149,-118,-343,848,430,2025-11-08_13-52-18,33
905,-2004,-284,-531,657,-45,2025-11-08_13-52-18,34
-499,-2932,737,-795,2544,-1227,2025-11-08_13-52-18,35
588,-1960,-1320,4957,1648,1326,2025-11-08_13-52-18,36
1368,-416,-1635,3008,1955,2322,2025-11-08_13-52-18,37
190,-2083,-1446,3637,3433,751,2025-11-08_13-52-18,38
-597,-939,-696,588,-3174,-405,2025-11-08_13-52-18,39
593,-963,-354,-1848,1385,-764,2025-11-08_13-52-18,40
-364,-769,113,-589,-1207,-438,2025-11-08_13-52-18,41
932,-843,608,2266,-1645,431,2025-11-08_13-52-18,42
475,-2067,-1313,4347,2795,1656,2025-11-08_13-52-18,43
542,-925,-1438,2881,1808,406,2025-11-08_13-52-18,44
228,-947,-1088,1224,-882,-956,2025-11-08_13-52-18,45
325,-3757,227,-3646,-53,-261,2025-11-08_13-52-18,46
231,-1916,-31,-72,935,548,2025-11-08_13-52-18,47
331,-1907,-297,-551,86,-66,2025-11-08_13-52-18,48
586,-1954,-253,-470,-537,17,2025-11-08_13-52-18,49
-229,-1683,-771,-968,361,-242,2025-11-08_13-52-18,50
-5,-953,-1066,-1791,411,-119,2025-11-08_13-52-18,51
240,-1081,-98,-875,-2001,-458,2025-11-08_13-52-18,52
472,-2372,-917,5812,326,658,2025-11-08_13-52-18,53
301,-881,-1487,2645,1934,587,2025-11-08_13-52-18,54
1054,-2670,-1666,-2019,1014,495,2025-11-08_13-52-18,55
-221,-3097,314,-2417,-335,16,2025-11-08_13-52-18,56
576,-1719,498,-1085,-64,-70,2025-11-08_13-52-18,57
307,-1921,21,-508,804,-79,2025-11-08_13-52-18,58
-65,-2119,-215,-775,966,-492,2025-11-08_13-52-18,59
208,-2001,-1434,-1938,3795,-261,2025-11-08_13-53-21,0
-436,-3270,-1707,4551,4051,974,2025-11-08_13-53-21,1
1067,-862,-1470,2819,1945,1165,2025-11-08_13-53-21,2
368,-3393,996,-3485,-437,21,2025-11-08_13-53-21,3
540,-1536,268,-1420,-659,-286,2025-11-08_13-53-21,4
248,-2034,60,-371,-151,-116,2025-11-08_13-53-21,5
-29,-1992,-1099,-692,895,104,2025-11-08_13-53-21,6
2446,-2994,511,-1200,-795,-442,2025-11-08_13-53-21,7
93,-2297,-1282,6266,1188,1405,2025-11-08_13-53-21,8
349,-640,-1544,2749,930,172,2025-11-08_13-53-21,9
1105,-3289,-1179,-2515,-1539,-604,2025-11-08_13-53-21,10
-350,-3245,1103,-3224,-1629,-1233,2025-11-08_13-53-21,11
539,-2157,59,-2062,-1372,-487,2025-11-08_13-53-21,12
270,-1818,122,-831,-62,-57,2025-11-08_13-53-21,13
346,-1950,-345,-396,293,-192,2025-11-08_13-53-21,14
814,-1659,-762,-974,-682,-23,2025-11-08_13-53-21,15
469,-1360,-1500,-1392,-104,-821,2025-11-08_13-53-21,16
949,-1211,179,-720,789,-838,2025-11-08_13-53-21,17
1052,-1022,-1624,4892,531,364,2025-11-08_13-53-21,18
644,-1199,-1460,2061,-1420,-738,2025-11-08_13-53-21,19
-633,-3433,250,-3053,-1529,-1330,2025-11-08_13-53-21,20
1033,-1725,149,-1385,344,-135,2025-11-08_13-53-21,21
215,-1983,-247,-459,393,-49,2025-11-08_13-53-21,22
1551,-1712,-776,-885,-686,-75,2025-11-08_13-53-21,23
528,-1807,-1755,-3326,3427,-397,2025-11-08_13-53-21,24
92,-1382,-1625,5150,2061,1178,2025-11-08_13-53-21,25
1396,-2372,-2458,-1631,-878,-867,2025-11-08_13-53-21,26
714,-1646,-397,-1089,-441,-122,2025-11-08_13-53-21,27
543,-1897,165,-351,-1288,13,2025-11-08_13-53-21,28
713,-2517,-1215,-1224,-1157,-500,2025-11-08_13-53-21,29
136,-2391,-1239,4318,-369,419,2025-11-08_13-53-21,30
33,-863,-1575,5403,-58,485,2025-11-08_13-53-21,31
-85,-716,-1402,2896,393,-1156,2025-11-08_13-53-21,32
631,-2614,-1532,-2737,-1259,-960,2025-11-08_13-53-21,33
1048,-2618,-324,-1853,-320,-266,2025-11-08_13-53-21,34
450,-1833,141,-846,128,-118,2025-11-08_13-53-21,35
240,-1953,-336,-420,60,11,2025-11-08_13-53-21,36
1367,-2022,-727,-962,498,-204,2025-11-08_13-53-21,37
341,-1204,-876,-1731,190,-1031,2025-11-08_13-53-21,38
569,-2109,-1711,4862,-515,-654,2025-11-08_13-53-21,39
2035,-1401,-1780,4079,4981,1996,2025-11-08_13-53-21,40
696,-992,-1245,1400,-1883,-555,2025-11-08_13-53-21,41
-282,-3358,176,-2867,-2806,-1424,2025-11-08_13-53-21,42
587,-1848,510,-904,-165,-44,2025-11-08_13-53-21,43
492,-1981,-166,-600,410,-84,2025-11-08_13-53-21,44
-88,-1843,-463,-1099,1275,-212,2025-11-08_13-53-21,45
-1095,-3182,2412,-2767,1912,-526,2025-11-08_13-53-21,46
640,-2231,-1345,6144,1171,776,2025-11-08_13-53-21,47
308,-728,-1561,2758,1473,413,2025-11-08_13-53-21,48
320,-3416,216,-3269,-2350,-995,2025-11-08_13-53-21,49
-38,-3253,-692,-2705,-734,-595,2025-11-08_13-53-21,50
709,-1487,575,-1528,-12,-227,2025-11-08_13-53-21,51
382,-1893,-177,-868,-356,-153,2025-11-08_13-53-21,52
484,-2022,-418,-511,-621,29,2025-11-08_13-53-21,53
1592,-2186,-792,-1189,776,-662,2025-11-08_13-53-21,54
373,-1414,-906,-1985,-4448,-750,2025-11-08_13-53-21,55
987,-3204,-957,6580,306,855,2025-11-08_13-53-21,56
-913,-3206,1706,-2401,3333,-586,2025-11-08_13-54-22,0
105,-1546,-620,3646,1653,662,2025-11-08_13-54-22,1
854,-1056,-1511,2530,3828,3357,2025-11-08_13-54-22,2
1246,-2177,-882,-2503,1948,1033,2025-11-08_13-54-22,3
381,-1815,343,-1163,-48,165,2025-11-08_13-54-22,4
619,-1943,0,-265,-394,-152,2025-11-08_13-54-22,5
860,-1911,-438,-129,-954,-157,2025-11-08_13-54-22,6
953,-1570,-1152,-1172,-1205,-183,2025-11-08_13-54-22,7
-983,-298,789,-44,-1015,-390,2025-11-08_13-54-22,8
538,-999,-1392,4279,1018,599,2025-11-08_13-54-22,9
451,-2389,-1659,-1552,900,25,2025-11-08_13-54-22,10
170,-2934,-159,-2110,-109,-84,2025-11-08_13-54-22,11
323,-1879,-94,-490,488,-122,2025-11-08_13-54-22,12
745,-1917,-324,-298,-254,24,2025-11-08_13-54-22,13
672,-2236,-677,-1146,608,-949,2025-11-08_13-54-22,14
196,-1644,-166,-2471,-1846,-279,2025-11-08_13-54-22,15
859,-1288,302,413,-3725,-123,2025-11-08_13-54-22,16
389,-1147,-1340,3087,555,-212,2025-11-08_13-54-22,17
1463,-2578,-1135,-2992,-436,254,2025-11-08_13-54-22,18
458,-3042,384,-2261,-720,-259,2025-11-08_13-54-22,19
594,-1718,520,-986,-844,-134,2025-11-08_13-54-22,20
441,-1889,46,-348,-28,17,2025-11-08_13-54-22,21
818,-2139,-691,-614,592,-188,2025-11-08_13-54-22,22
1620,-2510,-941,-1078,-731,-527,2025-11-08_13-54-22,23
-1840,-5408,-781,-1109,6112,722,2025-11-08_13-54-22,24
-426,-2812,-1102,4967,2449,767,2025-11-08_13-54-22,25
1151,-520,-1714,3333,2644,1683,2025-11-08_13-54-22,26
1968,-1105,-1455,-1437,4422,2550,2025-11-08_13-54-22,27
330,-2959,263,-2281,-923,-179,2025-11-08_13-54-22,28
520,-1742,66,-547,-589,-241,2025-11-08_13-54-22,29
423,-2022,-358,-332,236,44,2025-11-08_13-54-22,30
220,-3101,836,-997,2037,105,2025-11-08_13-54-22,31
718,-2128,-1193,5536,259,582,2025-11-08_13-54-22,32
968,-1139,-1364,1301,688,593,2025-11-08_13-54-22,33
449,-2992,616,-3083,-846,327,2025-11-08_13-54-22,34
455,-1835,429,-1132,-235,-86,2025-11-08_13-54-22,35
100,-1973,-71,-89,-1259,0,2025-11-08_13-54-22,36
1488,-1743,-1278,-621,-128,254,2025-11-08_13-54-22,37
883,-1888,-427,95,-3673,-482,2025-11-08_13-54-22,38
366,-1378,-839,945,806,-541,2025-11-08_13-54-22,39
389,-1013,-1398,3869,1450,792,2025-11-08_13-54-22,40
668,-2410,-2459,-1140,1336,-222,2025-11-08_13-54-22,41
-432,-3320,323,-2740,-1051,-550,2025-11-08_13-54-22,42
747,-1693,431,-942,-748,-110,2025-11-08_13-54-22,43
577,-1895,-296,-207,-186,38,2025-11-08_13-54-22,44
668,-2146,-323,-580,60,-20,2025-11-08_13-54-22,45
599,-2129,-1709,-1223,-1859,-485,2025-11-08_13-54-22,46
275,-1223,390,-973,-696,-545,2025-11-08_13-54-22,47
564,-1774,-1280,4965,2382,1117,2025-11-08_13-54-22,48
1226,-1141,-1314,1215,1477,2060,2025-11-08_13-54-22,49
27,-4075,894,-3419,-2064,-655,2025-11-08_13-54-22,50
395,-2012,-248,-704,299,144,2025-11-08_13-54-22,51
683,-1893,-189,-543,88,-104,2025-11-08_13-54-22,52
413,-2115,-434,-555,-149,-137,2025-11-08_13-54-22,53
1854,-2473,-1559,-1338,-765,-154,2025-11-08_13-54-22,54
61,-2773,-973,4356,3122,586,2025-11-08_13-54-22,55
348,-709,-1470,3220,1457,330,2025-11-08_13-54-22,56
306,-1967,-85,-336,-222,167,2025-11-08_14-08-58,0
726,-1183,-1275,2758,-44,1137,2025-11-08_14-08-58,1
914,-2744,-81,-2546,721,-726,2025-11-08_14-08-58,2
366,-1914,-398,-810,88,-243,2025-11-08_14-08-58,3
-119,-1946,76,-830,-81,-9,2025-11-08_14-08-58,4
1624,-1704,839,176,-1669,-230,2025-11-08_14-08-58,5
909,-1568,-1282,4569,193,1414,2025-11-08_14-08-58,6
792,-1751,-1107,-1845,3066,226,2025-11-08_14-08-58,7
-138,-1870,-104,-1028,581,-238,2025-11-08_14-08-58,8
210,-1951,91,-573,813,-289,2025-11-08_14-08-58,9
1116,-4239,1778,-1154,583,-513,2025-11-08_14-08-58,10
525,-967,-1430,2610,-465,1177,2025-11-08_14-08-58,11
542,-3183,568,-2831,-565,-1240,2025-11-08_14-08-58,12
504,-1935,-254,-451,-342,-298,2025-11-08_14-08-58,13
177,-1948,371,-458,-1201,-28,2025-11-08_14-08-58,14
673,-2443,-737,4076,1768,655,2025-11-08_14-08-58,15
255,-1075,-1581,1697,-1043,798,2025-11-08_14-08-58,16
740,-2586,75,-2020,678,-385,2025-11-08_14-08-58,17
488,-1885,-524,-842,438,-270,2025-11-08_14-08-58,18
280,-2106,-1,-701,-731,-40,2025-11-08_14-08-58,19
-22,-1810,-775,1974,1613,1044,2025-11-08_14-08-58,20
715,-871,-1379,1722,-1078,902,2025-11-08_14-08-58,21
665,-2625,-271,-1848,-20,-1099,2025-11-08_14-08-58,22
570,-1997,-348,-109,-344,-162,2025-11-08_14-08-58,23
299,-2646,-387,-405,-1569,112,2025-11-08_14-08-58,24
558,-1161,-1285,4055,1452,1729,2025-11-08_14-08-58,25
698,-2236,-881,-2540,1451,-80,2025-11-08_14-08-58,26
182,-1860,-130,-890,-19,-331,2025-11-08_14-08-58,27
299,-1962,-78,-863,155,-323,2025-11-08_14-08-58,28
475,-2565,-1114,-1035,-1455,134,2025-11-08_14-08-58,29
789,-1864,-1162,4783,286,1283,2025-11-08_14-08-58,30
758,-1610,-1797,-990,1842,-91,2025-11-08_14-08-58,31
-104,-2104,-571,-1618,76,-647,2025-11-08_14-08-58,32
194,-1936,-227,-945,828,-224,2025-11-08_14-08-58,33
-603,-2191,114,-907,13,-171,2025-11-08_14-08-58,34
887,-1613,-952,-1611,1421,-439,2025-11-08_14-08-58,35
979,-845,-1129,2729,441,2164,2025-11-08_14-08-58,36
1454,-2385,-21,-2839,2529,450,2025-11-08_14-08-58,37
377,-1882,-472,-769,429,-261,2025-11-08_14-08-58,38
185,-1906,335,-916,-129,-159,2025-11-08_14-08-58,39
495,-1939,-216,-967,-115,314,2025-11-08_14-08-58,40
1075,-2000,-1144,3839,2239,1257,2025-11-08_14-08-58,41
645,-1643,-2322,-915,2355,-1,2025-11-08_14-08-58,42
-43,-1834,110,-1531,169,-622,2025-11-08_14-08-58,43
399,-1910,-452,-782,233,-300,2025-11-08_14-08-58,44
-73,-2162,281,-1050,1244,-241,2025-11-08_14-08-58,45
-1190,-432,351,139,-195,312,2025-11-08_14-08-58,46
-84,-1362,-1508,978,-164,-349,2025-11-08_14-08-58,47
596,-3035,141,-2627,-492,-1245,2025-11-08_14-08-58,48
507,-1976,-93,-187,-408,-150,2025-11-08_14-08-58,49
1301,-1225,-705,-603,-1922,-452,2025-11-08_14-08-58,50
637,-1055,-1099,3009,578,1721,2025-11-08_14-08-58,51
1109,-2950,250,-3144,1302,-605,2025-11-08_14-08-58,52
186,-1934,-226,-942,359,-328,2025-11-08_14-08-58,53
239,-1964,-91,-876,203,-274,2025-11-08_14-08-58,54
1621,-1468,122,-1049,706,325,2025-11-08_14-08-58,55
-996,-608,-451,1538,1432,1074,2025-11-08_14-08-58,56
459,-972,-1500,3263,-64,1039,2025-11-08_14-08-58,57
894,-2520,413,-2691,906,-611,2025-11-08_14-08-58,58
197,-1880,-206,-998,244,-265,2025-11-08_14-08-58,59
226,-1934,-150,-667,175,-343,2025-11-08_14-10-01,0
525,-1929,584,-582,-883,-129,2025-11-08_14-10-01,1
3415,-5975,3568,904,-1498,391,2025-11-08_14-10-01,2
485,-1213,-1346,3459,194,1254,2025-11-08_14-10-01,3
423,-3149,759,-2935,709,-879,2025-11-08_14-10-01,4
569,-1907,-598,-821,184,-236,2025-11-08_14-10-01,5
246,-2012,-137,-619,-361,-36,2025-11-08_14-10-01,6
484,-2151,-1304,-1557,-307,-850,2025-11-08_14-10-01,7
1051,-502,-106,-1126,-296,-305,2025-11-08_14-10-01,8
669,-759,-1418,3393,209,1201,2025-11-08_14-10-01,9
227,-2057,-1634,-1250,2518,-613,2025-11-08_14-10-01,10
193,-1907,27,-1031,-600,-502,2025-11-08_14-10-01,11
540,-1932,-175,-202,-353,-145,2025-11-08_14-10-01,12
268,-1929,-1213,-2014,364,-258,2025-11-08_14-10-01,13
871,-1889,-591,3927,1846,1084,2025-11-08_14-10-01,14
825,-735,-1390,4032,143,1512,2025-11-08_14-10-01,15
60,-1728,-3044,-227,1794,-1062,2025-11-08_14-10-01,16
637,-2831,300,-2248,-671,-1173,2025-11-08_14-10-01,17
-65,-1848,322,-941,66,-238,2025-11-08_14-10-01,18
259,-1964,-294,-594,88,-151,2025-11-08_14-10-01,19
142,-2045,-873,-839,1107,-28,2025-11-08_14-10-01,20
-554,-2604,-522,-1538,1283,-395,2025-11-08_14-10-01,21
1120,-6113,-692,1852,-467,-941,2025-11-08_14-10-01,22
1642,-2259,-1501,4366,1760,1886,2025-11-08_14-10-01,23
655,-688,-1283,1506,488,2241,2025-11-08_14-10-01,24
1073,-3542,276,-3470,608,-682,2025-11-08_14-10-01,25
183,-1934,-59,-1594,-405,-560,2025-11-08_14-10-01,26
485,-1903,-90,-460,-590,-181,2025-11-08_14-10-01,27
154,-2026,-537,-555,-83,-320,2025-11-08_14-10-01,28
259,-1234,-537,-1821,-1203,-615,2025-11-08_14-10-01,29
12,-116,478,1921,196,1187,2025-11-08_14-10-01,30
903,-896,-1539,4900,982,1804,2025-11-08_14-10-01,31
294,-1224,-1546,906,-350,468,2025-11-08_14-10-01,32
1052,-3258,-90,-3439,-326,-900,2025-11-08_14-10-01,33
321,-1794,33,-939,-250,-449,2025-11-08_14-10-01,34
593,-1901,-359,-231,-611,29,2025-11-08_14-10-01,35
1139,-1437,-465,-896,-132,-485,2025-11-08_14-10-01,36
1300,-2615,-902,5521,-694,1205,2025-11-08_14-10-01,37
183,-886,-1475,2174,-361,1348,2025-11-08_14-10-01,38
826,-2613,-978,-2412,2394,-609,2025-11-08_14-10-01,39
1357,-3030,-157,-2003,-129,-733,2025-11-08_14-10-01,40
149,-1962,88,-837,-278,-291,2025-11-08_14-10-01,41
288,-2062,-245,-540,-62,-78,2025-11-08_14-10-01,42
210,-2486,-283,-806,-66,70,2025-11-08_14-10-01,43
593,-4209,1214,-119,-1247,-451,2025-11-08_14-10-01,44
713,-1925,-519,3808,1858,1264,2025-11-08_14-10-01,45
1343,-374,-1154,3555,2073,2522,2025-11-08_14-10-01,46
1039,-2581,-1498,-2852,4054,1447,2025-11-08_14-10-01,47
241,-2647,-505,-2468,301,-857,2025-11-08_14-10-01,48
583,-1907,280,-1178,-205,-497,2025-11-08_14-10-01,49
476,-1827,-104,-796,-244,-123,2025-11-08_14-10-01,50
508,-1940,-323,-772,1023,-24,2025-11-08_14-10-01,51
176,-2221,-1320,-1844,1250,-342,2025-11-08_14-10-01,52
20,-1591,-1440,-3872,3480,-590,2025-11-08_14-10-01,53
1190,-2254,-409,4303,2109,614,2025-11-08_14-10-01,54
739,-1641,-879,4135,224,442,2025-11-08_14-10-01,55
187,-2957,-826,-2568,510,-1122,2025-11-08_14-11-03,0
365,-2138,-379,-1526,-248,-596,2025-11-08_14-11-03,1
473,-1874,-276,-537,-53,-193,2025-11-08_14-11-03,2
-300,-2135,-580,-579,-233,172,2025-11-08_14-11-03,3
655,-2106,-1406,-1977,512,-424,2025-11-08_14-11-03,4
1909,-372,-1322,-2513,1410,-506,2025-11-08_14-11-03,5
806,-929,-1585,4437,910,2048,2025-11-08_14-11-03,6
1486,-1053,-1979,-1938,5511,2357,2025-11-08_14-11-03,7
-86,-1787,-81,-1225,262,-313,2025-11-08_14-11-03,8
315,-1839,-47,-949,387,-361,2025-11-08_14-11-03,9
986,-1907,-534,-333,-456,-176,2025-11-08_14-11-03,10
1513,-467,-750,-989,-1725,-174,2025-11-08_14-11-03,11
1264,-2265,-852,4056,1557,1236,2025-11-08_14-11-03,12
791,-725,-1441,3622,374,1535,2025-11-08_14-11-03,13
1082,-2120,-1695,-2163,2176,21,2025-11-08_14-11-03,14
543,-2318,-109,-1916,440,-298,2025-11-08_14-11-03,15
300,-1905,-267,-809,189,-138,2025-11-08_14-11-03,16
605,-1888,-235,-797,179,18,2025-11-08_14-11-03,17
-27,-2335,-956,-1189,-179,-214,2025-11-08_14-11-03,18
1746,-2038,-2228,4800,-6668,-833,2025-11-08_14-11-03,19
2001,-2825,-1285,-559,-5391,173,2025-11-08_14-11-03,20
125,-2232,-332,-1761,336,-468,2025-11-08_14-11-03,21
147,-2000,-245,-605,501,-129,2025-11-08_14-11-03,22
323,-1936,-527,-728,-635,-277,2025-11-08_14-11-03,23
1543,-797,-590,-607,-2941,204,2025-11-08_14-11-03,24
1432,-2453,-1206,5280,-462,1349,2025-11-08_14-11-03,25
787,-727,-1658,2529,-892,554,2025-11-08_14-11-03,26
597,-3468,-126,-3339,786,-837,2025-11-08_14-11-03,27
203,-2100,-148,-1961,865,-221,2025-11-08_14-11-03,28
218,-1869,-150,-776,85,-235,2025-11-08_14-11-03,29
338,-1951,-506,-746,112,-147,2025-11-08_14-11-03,30
68,-1932,457,-452,350,-1,2025-11-08_14-11-03,31
-704,-210,1809,922,612,564,2025-11-08_14-11-03,32
273,-1064,-1779,5163,-664,605,2025-11-08_14-11-03,33
-29,-1214,-1738,2663,-1981,-954,2025-11-08_14-11-03,34
690,-2816,347,-3005,882,-1035,2025-11-08_14-11-03,35
-48,-1876,170,-1250,364,-355,2025-11-08_14-11-03,36
202,-1940,-171,-579,242,-133,2025-11-08_14-11-03,37
414,-2013,-432,-530,-287,-308,2025-11-08_14-11-03,38
523,-1734,-58,-847,-3266,-353,2025-11-08_14-11-03,39
1226,-1803,-1595,5680,302,1356,2025-11-08_14-11-03,40
385,-1062,-1507,1430,-1588,-171,2025-11-08_14-11-03,41
393,-3205,301,-2433,-1048,-1486,2025-11-08_14-11-03,42
477,-1939,-79,-356,-18,-369,2025-11-08_14-11-03,43
-48,-2186,-620,-657,-589,-287,2025-11-08_14-11-03,44
1354,-3572,941,-224,-1453,-551,2025-11-08_14-11-03,45
1012,-2718,-1025,5869,-538,986,2025-11-08_14-11-03,46
440,-832,-1651,3872,-124,969,2025-11-08_14-11-03,47
954,-1861,-1958,-1220,2100,-463,2025-11-08_14-11-03,48
705,-2962,374,-3134,74,-1042,2025-11-08_14-11-03,49
289,-1916,-237,-1345,844,-220,2025-11-08_14-11-03,50
19,-1927,-243,-541,529,-129,2025-11-08_14-11-03,51
434,-2061,-693,-719,-212,-219,2025-11-08_14-11-03,52
1398,-879,-1468,-1650,893,-172,2025-11-08_14-11-03,53
751,-2237,-1419,3307,4451,1391,2025-11-08_14-11-03,54
704,-731,-595,-2030,1587,-138,2025-11-08_14-12-02,0
979,-881,-1269,4505,732,2032,2025-11-08_14-12-02,1
433,-1224,-1080,163,1064,481,2025-11-08_14-12-02,2
1030,-2791,414,-2972,252,-621,2025-11-08_14-12-02,3
120,-1947,103,-1350,129,-383,2025-11-08_14-12-02,4
306,-1848,-4,-797,34,-324,2025-11-08_14-12-02,5
-132,-1937,-342,706,-1326,382,2025-11-08_14-12-02,6
979,-1562,-1286,3122,-859,1193,2025-11-08_14-12-02,7
762,-2298,-1727,-2658,2888,-35,2025-11-08_14-12-02,8
-204,-1956,-177,-1460,-31,-535,2025-11-08_14-12-02,9
397,-1934,-285,-505,-170,-180,2025-11-08_14-12-02,10
-208,-2338,-502,-235,-1249,-184,2025-11-08_14-12-02,11
446,-2294,-1520,-2215,1686,-522,2025-11-08_14-12-02,12
-76,-956,-257,-1960,1442,-205,2025-11-08_14-12-02,13
602,-853,-1487,4930,1676,2113,2025-11-08_14-12-02,14
389,-1095,-1082,1826,-978,1123,2025-11-08_14-12-02,15
912,-3629,230,-3796,970,-60,2025-11-08_14-12-02,16
204,-1865,-348,-1134,986,-224,2025-11-08_14-12-02,17
109,-1957,-95,-720,480,-422,2025-11-08_14-12-02,18
1314,-2295,-365,-1062,1068,21,2025-11-08_14-12-02,19
1340,-3595,2096,-1839,-2962,-439,2025-11-08_14-12-02,20
829,-2397,-1011,5455,-315,1504,2025-11-08_14-12-02,21
655,-780,-1617,2241,-721,851,2025-11-08_14-12-02,22
746,-3092,153,-3689,1092,-438,2025-11-08_14-12-02,23
-75,-2051,-324,-1305,1310,-28,2025-11-08_14-12-02,24
398,-1967,-223,-656,237,4,2025-11-08_14-12-02,25
439,-1828,-501,-910,156,-326,2025-11-08_14-12-02,26
-1436,-1946,-333,-1807,6949,1301,2025-11-08_14-12-02,27
217,-2187,-1273,114,-662,-180,2025-11-08_14-12-02,28
993,-2791,-942,-1799,239,-659,2025-11-08_14-12-02,29
187,-1976,-142,-528,417,-165,2025-11-08_14-12-02,30
599,-1992,-773,-713,-438,-447,2025-11-08_14-12-02,31
1077,-2213,-1520,-1052,-2653,-248,2025-11-08_14-12-02,32
1556,-2318,-1603,6383,-632,1380,2025-11-08_14-12-02,33
408,-965,-1583,2028,-1341,418,2025-11-08_14-12-02,34
830,-3861,799,-3748,1082,-742,2025-11-08_14-12-02,35
-6,-1915,9,-933,537,-164,2025-11-08_14-12-02,36
216,-2051,-317,-492,45,-178,2025-11-08_14-12-02,37
-900,-1926,-689,-433,-740,-100,2025-11-08_14-12-02,38
-463,-1463,316,-1058,2293,-376,2025-11-08_14-12-02,39
430,-757,-1423,1383,405,2322,2025-11-08_14-12-02,40
760,-2725,454,-2785,891,-637,2025-11-08_14-12-02,41
295,-1939,251,-883,-133,-439,2025-11-08_14-12-02,42
879,-1833,-241,-595,-149,-237,2025-11-08_14-12-02,43
-142,-1842,-629,-563,-1132,-495,2025-11-08_14-12-02,44
-291,-2595,-216,-910,-1838,-378,2025-11-08_14-12-02,45
785,-3038,-568,5375,1044,1478,2025-11-08_14-12-02,46
305,-895,-1391,1246,430,1284,2025-11-08_14-12-02,47
1064,-2658,219,-2769,1452,-466,2025-11-08_14-12-02,48
301,-1964,-453,-751,-132,-260,2025-11-08_14-12-02,49
192,-2007,-406,-496,334,-141,2025-11-08_14-12-02,50
3336,-1743,53,118,-1835,393,2025-11-08_14-12-02,51
1004,-1592,-1066,2842,-1853,605,2025-11-08_14-12-02,52
725,-2601,9,-3033,659,-765,2025-11-08_14-12-02,53
56,-1847,92,-1071,286,-334,2025-11-08_14-12-02,54
409,-1926,-142,-680,397,-147,2025-11-08_14-12-02,55
-662,-2240,-516,-335,-2623,-86,2025-11-08_14-12-02,56
-7,-2041,-544,-889,1524,-130,2025-11-08_14-13-03,0
-35,-2412,-215,-961,3,-320,2025-11-08_14-13-03,1
-1319,-68,1776,-452,2304,453,2025-11-08_14-13-03,2
822,-1344,-1486,3703,3212,2023,2025-11-08_14-13-03,3
956,-1966,-1502,-2141,4112,1483,2025-11-08_14-13-03,4
47,-2096,-343,-1566,196,-269,2025-11-08_14-13-03,5
447,-1906,-262,-537,-354,-196,2025-11-08_14-13-03,6
-379,-2110,-276,-657,990,-80,2025-11-08_14-13-03,7
796,-1851,-1395,-2133,500,-352,2025-11-08_14-13-03,8
939,-2881,-539,4433,567,1387,2025-11-08_14-13-03,9
936,-641,-1447,3472,-84,1971,2025-11-08_14-13-03,10
1369,-1691,-2548,-1009,3020,582,2025-11-08_14-13-03,11
200,-2159,-421,-1498,297,-232,2025-11-08_14-13-03,12
288,-1927,-249,-602,38,-196,2025-11-08_14-13-03,13
659,-2183,-473,-402,-1423,-213,2025-11-08_14-13-03,14
3608,-1918,124,595,-4712,173,2025-11-08_14-13-03,15
1337,-2318,-1165,-420,-3209,750,2025-11-08_14-13-03,16
711,-2762,-351,-1864,413,-874,2025-11-08_14-13-03,17
290,-1885,-450,-884,91,-300,2025-11-08_14-13-03,18
-65,-2165,122,-1251,662,-131,2025-11-08_14-13-03,19
1064,-2204,-254,-1804,-2418,-171,2025-11-08_14-13-03,20
519,-1266,-1485,4283,-993,1447,2025-11-08_14-13-03,21
784,-730,-1479,3791,637,1384,2025-11-08_14-13-03,22
468,-2198,-864,-2127,1314,-633,2025-11-08_14-13-03,23
157,-2574,-271,-1930,614,-458,2025-11-08_14-13-03,24
258,-1811,-189,-554,347,-49,2025-11-08_14-13-03,25
322,-1921,-462,-826,1252,-82,2025-11-08_14-13-03,26
1248,-1395,-1065,74,-3009,-458,2025-11-08_14-13-03,27
737,-1774,-1323,4353,2637,1585,2025-11-08_14-13-03,28
702,-1010,-1136,-262,1443,1221,2025-11-08_14-13-03,29
1460,-2764,437,-2430,520,-657,2025-11-08_14-13-03,30
362,-1925,-112,-957,-53,-415,2025-11-08_14-13-03,31
670,-1896,-32,-268,-277,-80,2025-11-08_14-13-03,32
33,-2374,-856,-1585,1395,-242,2025-11-08_14-13-03,33
1002,-2107,-979,3622,2638,1417,2025-11-08_14-13-03,34
1042,-626,-1263,3093,-314,1712,2025-11-08_14-13-03,35
712,-2873,-349,-3260,998,-295,2025-11-08_14-13-03,36
-209,-1853,-62,-1305,319,-404,2025-11-08_14-13-03,37
457,-1955,-329,-509,499,-192,2025-11-08_14-13-03,38
-120,-2375,-338,-571,-791,52,2025-11-08_14-13-03,39
525,-1166,-553,340,5300,1149,2025-11-08_14-13-03,40
1115,-1474,-219,-734,2204,145,2025-11-08_14-13-03,41
-253,-2674,-258,-2002,1198,-284,2025-11-08_14-13-03,42
214,-1873,-166,-843,-31,-301,2025-11-08_14-13-03,43
-158,-2224,90,-831,-463,-269,2025-11-08_14-13-03,44
-1149,-2110,-1547,-2491,815,-598,2025-11-08_14-13-03,45
389,-881,-1703,4539,-160,574,2025-11-08_14-13-03,46
546,-1818,-2185,-981,1549,-719,2025-11-08_14-13-03,47
678,-3047,-507,-1979,211,-698,2025-11-08_14-13-03,48
662,-1849,-673,-858,-198,-199,2025-11-08_14-13-03,49
-69,-1936,-363,-964,419,-171,2025-11-08_14-13-03,50
361,-1495,161,-1824,3352,145,2025-11-08_14-13-03,51
19,-1228,-1153,2395,2942,1430,2025-11-08_14-13-03,52
1301,-459,-1163,2188,52,2224,2025-11-08_14-13-03,53
903,-2738,-379,-2009,2265,289,2025-11-08_14-13-03,54
88,-1955,-324,-626,215,-234,2025-11-08_14-13-03,55
306,-1799,398,-569,-1328,-300,2025-11-08_14-13-03,56
1077,-1561,-332,-799,-267,-142,2025-11-08_18-00-58,0
1128,-2065,-476,-1187,-219,-163,2025-11-08_18-00-58,1
1408,-733,-1807,3238,1069,1465,2025-11-08_18-00-58,2
1447,-787,-790,3514,665,1750,2025-11-08_18-00-58,3
733,-1091,-779,-790,454,-1790,2025-11-08_18-00-58,4
1396,-4093,-1704,-2840,1062,-1315,2025-11-08_18-00-58,5
-152,-2206,-795,-1135,505,-573,2025-11-08_18-00-58,6
181,-1962,-194,-389,653,-347,2025-11-08_18-00-58,7
23,-1754,-151,-153,-163,-276,2025-11-08_18-00-58,8
404,-1892,-260,-520,-235,-634,2025-11-08_18-00-58,9
571,-1581,-1282,-417,-1089,-399,2025-11-08_18-00-58,10
440,-1782,-7,-961,253,-654,2025-11-08_18-00-58,11
654,-839,-730,3192,-272,1186,2025-11-08_18-00-58,12
759,-1272,-1284,-2078,403,-1032,2025-11-08_18-00-58,13
182,-1766,-267,-851,-349,-371,2025-11-08_18-00-58,14
1244,-2296,-1487,-741,621,-496,2025-11-08_18-00-58,15
590,-1490,-4,-786,1240,73,2025-11-08_18-00-58,16
731,-1082,-972,2803,122,1608,2025-11-08_18-00-58,17
223,-3507,544,-2555,56,-1776,2025-11-08_18-00-58,18
88,-1939,-218,-959,522,-539,2025-11-08_18-00-58,19
250,-1954,-272,-628,519,-352,2025-11-08_18-00-58,20
-1099,-1531,-234,-1723,-348,-923,2025-11-08_18-00-58,21
426,-1895,-401,1433,3210,575,2025-11-08_18-00-58,22
557,-3352,-302,-2926,1453,-1212,2025-11-08_18-00-58,23
381,-1882,-516,-1006,311,-540,2025-11-08_18-00-58,24
69,-1999,-231,-532,401,-313,2025-11-08_18-00-58,25
-217,-1939,-363,-624,-831,-390,2025-11-08_18-00-58,26
769,-1244,-1457,1929,562,1595,2025-11-08_18-00-58,27
1197,-3065,267,-527,784,-463,2025-11-08_18-00-58,28
353,-1935,-36,-75,313,-146,2025-11-08_18-00-58,29
-635,-2232,164,-174,-319,-342,2025-11-08_18-00-58,30
640,-858,-832,1484,-403,1320,2025-11-08_18-00-58,31
-319,-2145,261,-1452,1680,-870,2025-11-08_18-00-58,32
451,-1769,-329,-554,147,-283,2025-11-08_18-00-58,33
467,-1998,-464,357,-683,-59,2025-11-08_18-00-58,34
692,-1426,-1557,1828,-103,2467,2025-11-08_18-00-58,35
118,-1293,-1172,933,330,27,2025-11-08_18-00-58,36
1281,-2978,-500,385,-233,-129,2025-11-08_18-00-58,37
456,-1877,-262,-38,167,-72,2025-11-08_18-00-58,38
2007,-1981,-1564,-824,-201,-712,2025-11-08_18-00-58,39
527,-939,-363,1951,209,1489,2025-11-08_18-00-58,40
470,-2448,-90,-1204,106,-1112,2025-11-08_18-00-58,41
646,-1890,-283,-741,-22,-580,2025-11-08_18-00-58,42
91,-2013,133,-684,-923,-495,2025-11-08_18-00-58,43
1322,-1419,-1885,-1460,-2856,-1190,2025-11-08_18-00-58,44
650,-1042,-1236,3309,909,1873,2025-11-08_18-00-58,45
393,-3120,802,-2439,584,-1733,2025-11-08_18-00-58,46
157,-1909,-183,-689,426,-582,2025-11-08_18-00-58,47
-33,-2013,-164,-887,667,-510,2025-11-08_18-00-58,48
-574,-1912,-1619,-462,-3115,-465,2025-11-08_18-00-58,49
841,-1751,-1076,3934,1405,2823,2025-11-08_18-00-58,50
1278,-2242,-623,-2309,3066,221,2025-11-08_18-00-58,51
123,-1878,-291,-678,374,-526,2025-11-08_18-00-58,52
174,-2025,-198,-732,107,-459,2025-11-08_18-00-58,53
1738,-2194,-1118,-664,-3462,-118,2025-11-08_18-00-58,54
597,-1776,-1010,4041,620,2784,2025-11-08_18-00-58,55
734,-1982,-879,-1577,343,-1402,2025-11-08_18-00-58,56
77,-1903,-93,-772,349,-627,2025-11-08_18-00-58,57
91,-1981,-386,-721,444,-313,2025-11-08_18-00-58,58
1479,-2702,-1438,1861,-6636,21,2025-11-08_18-00-58,59
1190,-2302,-1924,1155,-6098,-189,2025-11-08_18-02-01,0
538,-1547,-1048,3649,1135,2057,2025-11-08_18-02-01,1
268,-2563,77,-1900,-9,-1745,2025-11-08_18-02-01,2
249,-1910,-317,-784,514,-591,2025-11-08_18-02-01,3
311,-1942,-257,-836,576,-739,2025-11-08_18-02-01,4
-973,-2351,-85,-924,-322,-570,2025-11-08_18-02-01,5
1837,-863,-754,-983,1910,-563,2025-11-08_18-02-01,6
1436,-1635,-291,-903,1889,-223,2025-11-08_18-02-01,7
288,-1882,-436,-836,602,-596,2025-11-08_18-02-01,8
140,-2015,-217,-623,-189,-469,2025-11-08_18-02-01,9
363,-1854,-1045,-1687,-2156,-1331,2025-11-08_18-02-01,10
813,-1066,-999,2215,-1569,1156,2025-11-08_18-02-01,11
953,-2992,-294,-1420,131,-1287,2025-11-08_18-02-01,12
187,-1906,-279,-725,821,-503,2025-11-08_18-02-01,13
32,-1922,185,-1453,2074,-378,2025-11-08_18-02-01,14
1570,-2667,-1675,3642,2369,2398,2025-11-08_18-02-01,15
648,-1347,-719,2264,1586,2578,2025-11-08_18-02-01,16
882,-2142,-705,-1308,5918,707,2025-11-08_18-02-01,17
430,-1892,-544,-703,181,-513,2025-11-08_18-02-01,18
217,-1909,-84,-876,615,-434,2025-11-08_18-02-01,19
662,-1601,-1684,-1870,-2031,-1415,2025-11-08_18-02-01,20
408,-1312,-925,2844,1894,1418,2025-11-08_18-02-01,21
1167,-2913,-393,-1508,711,-1133,2025-11-08_18-02-01,22
488,-1917,-280,-619,-80,-727,2025-11-08_18-02-01,23
774,-1863,-613,-577,573,-314,2025-11-08_18-02-01,24
207,-1875,-602,-179,3623,543,2025-11-08_18-02-01,25
705,-1834,-931,-1806,736,-1023,2025-11-08_18-02-01,26
19,-1885,-149,-772,391,-780,2025-11-08_18-02-01,27
-31,-1940,-161,-711,729,-617,2025-11-08_18-02-01,28
551,-1827,-416,-439,521,-606,2025-11-08_18-02-01,29
1576,-3083,-882,4001,1439,3320,2025-11-08_18-02-01,30
-501,-1260,-752,561,-1153,767,2025-11-08_18-02-01,31
2091,-1699,-642,214,2679,334,2025-11-08_18-02-01,32
410,-1875,-444,-676,207,-393,2025-11-08_18-02-01,33
28,-1953,-7,-651,-233,-389,2025-11-08_18-02-01,34
1305,-1114,-955,-1499,709,-796,2025-11-08_18-02-01,35
1365,-1198,-739,1747,-2539,974,2025-11-08_18-02-01,36
888,-2245,-194,-1033,209,-1480,2025-11-08_18-02-01,37
42,-1900,-298,-474,795,-617,2025-11-08_18-02-01,38
-24,-1913,-557,-739,376,-306,2025-11-08_18-02-01,39
2,-1905,-417,-440,1890,520,2025-11-08_18-02-01,40
456,-2291,-125,-1701,451,-1106,2025-11-08_18-02-01,41
243,-1973,-280,-538,435,-477,2025-11-08_18-02-01,42
-611,-2825,-2426,-1264,-1290,-829,2025-11-08_18-02-01,43
736,-1761,-863,3618,858,2203,2025-11-08_18-02-01,44
42,-3118,-137,-2190,529,-1090,2025-11-08_18-02-01,45
363,-1928,-595,-688,557,-486,2025-11-08_18-02-01,46
-8,-1991,-177,-724,108,-616,2025-11-08_18-02-01,47
1156,-2159,478,-814,-2548,-351,2025-11-08_18-02-01,48
510,-1915,-1086,2628,1332,2094,2025-11-08_18-02-01,49
459,-2002,-192,-180,1359,-427,2025-11-08_18-02-01,50
267,-1992,-241,-562,939,-185,2025-11-08_18-02-01,51
-1307,-2027,-779,-1432,1487,-923,2025-11-08_18-02-01,52
321,-1532,-900,3811,1075,1702,2025-11-08_18-02-01,53
1110,-1570,-997,-2091,1367,-1425,2025-11-08_18-02-01,54
67,-1896,-169,-650,317,-625,2025-11-08_18-02-01,55
1180,-2290,-1920,1160,-6080,-190,2025-11-08_18-03-01,0
540,-1550,-1050,3650,1130,2050,2025-11-08_18-03-01,1
270,-2560,80,-1900,-10,-1740,2025-11-08_18-03-01,2
250,-1910,-310,-780,510,-590,2025-11-08_18-03-01,3
310,-1940,-250,-830,570,-730,2025-11-08_18-03-01,4
-970,-2350,-80,-920,-320,-570,2025-11-08_18-03-01,5
1830,-860,-750,-980,1910,-560,2025-11-08_18-03-01,6
1430,-1630,-290,-900,1880,-220,2025-11-08_18-03-01,7
280,-1880,-430,-830,600,-590,2025-11-08_18-03-01,8
140,-2010,-210,-620,-180,-460,2025-11-08_18-03-01,9
360,-1850,-1040,-1680,-2150,-1330,2025-11-08_18-03-01,10
810,-1060,-990,2210,-1560,1150,2025-11-08_18-03-01,11
950,-2990,-290,-1420,130,-1280,2025-11-08_18-03-01,12
180,-1900,-270,-720,820,-500,2025-11-08_18-03-01,13
30,-1920,180,-1450,2070,-370,2025-11-08_18-03-01,14
1570,-2660,-1670,3640,2360,2390,2025-11-08_18-03-01,15
640,-1340,-710,2260,1580,2570,2025-11-08_18-03-01,16
880,-2140,-700,-1300,5910,700,2025-11-08_18-03-01,17
430,-1890,-540,-700,180,-510,2025-11-08_18-03-01,18
210,-1900,-80,-870,610,-430,2025-11-08_18-03-01,19
660,-1600,-1680,-1870,-2030,-1410,2025-11-08_18-03-01,20
400,-1310,-920,2840,1890,1410,2025-11-08_18-03-01,21
1160,-2910,-390,-1500,710,-1130,2025-11-08_18-03-01,22
480,-1910,-280,-610,-80,-720,2025-11-08_18-03-01,23
770,-1860,-610,-570,570,-310,2025-11-08_18-03-01,24
200,-1870,-600,-170,3620,540,2025-11-08_18-03-01,25
700,-1830,-930,-1800,730,-1020,2025-11-08_18-03-01,26
10,-1880,-140,-770,390,-780,2025-11-08_18-03-01,27
-30,-1940,-160,-710,720,-610,2025-11-08_18-03-01,28
550,-1820,-410,-430,520,-600,2025-11-08_18-03-01,29
1570,-3080,-880,4000,1430,3320,2025-11-08_18-03-01,30
-500,-1260,-750,560,-1150,760,2025-11-08_18-03-01,31
2090,-1690,-640,210,2670,330,2025-11-08_18-03-01,32
410,-1870,-440,-670,200,-390,2025-11-08_18-03-01,33
20,-1950,0,-650,-230,-380,2025-11-08_18-03-01,34
1300,-1110,-950,-1490,700,-790,2025-11-08_18-03-01,35
1360,-1190,-730,1740,-2530,970,2025-11-08_18-03-01,36
880,-2240,-190,-1030,200,-1480,2025-11-08_18-03-01,37
40,-1900,-290,-470,790,-610,2025-11-08_18-03-01,38
-20,-1910,-550,-730,370,-300,2025-11-08_18-03-01,39
0,-1900,-410,-440,1890,520,2025-11-08_18-03-01,40
450,-2290,-120,-1700,450,-1100,2025-11-08_18-03-01,41
240,-1970,-280,-530,430,-470,2025-11-08_18-03-01,42
-610,-2820,-2420,-1260,-1290,-820,2025-11-08_18-03-01,43
730,-1760,-860,3610,850,2200,2025-11-08_18-03-01,44
40,-3110,-130,-2190,520,-1090,2025-11-08_18-03-01,45
360,-1920,-590,-680,550,-480,2025-11-08_18-03-01,46
0,-1990,-170,-720,100,-610,2025-11-08_18-03-01,47
1150,-2150,470,-810,-2540,-350,2025-11-08_18-03-01,48
510,-1910,-1080,2620,1330,2090,2025-11-08_18-03-01,49
450,-2000,-190,-180,1350,-420,2025-11-08_18-03-01,50
260,-1990,-240,-560,930,-180,2025-11-08_18-03-01,51
-1300,-2020,-770,-1430,1480,-920,2025-11-08_18-03-01,52
320,-1530,-900,3810,1070,1700,2025-11-08_18-03-01,53
1110,-1570,-990,-2090,1360,-1420,2025-11-08_18-03-01,54
60,-1890,-160,-650,310,-620,2025-11-08_18-03-01,55
710,-725,-590,-2020,1580,-130,2025-11-08_18-04-03,0
970,-875,-1260,4510,730,2030,2025-11-08_18-04-03,1
430,-1220,-1080,160,1060,480,2025-11-08_18-04-03,2
1030,-2780,410,-2970,250,-620,2025-11-08_18-04-03,3
120,-1940,100,-1350,120,-380,2025-11-08_18-04-03,4
300,-1840,0,-790,30,-320,2025-11-08_18-04-03,5
-130,-1930,-340,700,-1320,380,2025-11-08_18-04-03,6
970,-1560,-1280,3120,-850,1190,2025-11-08_18-04-03,7
760,-2290,-1720,-2650,2880,-30,2025-11-08_18-04-03,8
-200,-1950,-170,-1460,-30,-530,2025-11-08_18-04-03,9
390,-1930,-280,-500,-170,-180,2025-11-08_18-04-03,10
-200,-2330,-500,-230,-1240,-180,2025-11-08_18-04-03,11
440,-2290,-1520,-2210,1680,-520,2025-11-08_18-04-03,12
-70,-950,-250,-1960,1440,-200,2025-11-08_18-04-03,13
600,-850,-1480,4930,1670,2110,2025-11-08_18-04-03,14
380,-1090,-1080,1820,-970,1120,2025-11-08_18-04-03,15
910,-3620,230,-3790,970,-60,2025-11-08_18-04-03,16
200,-1860,-340,-1130,980,-220,2025-11-08_18-04-03,17
100,-1950,-90,-720,480,-420,2025-11-08_18-04-03,18
1310,-2290,-360,-1060,1060,20,2025-11-08_18-04-03,19
1340,-3590,2090,-1830,-2960,-430,2025-11-08_18-04-03,20
820,-2390,-1010,5450,-310,1500,2025-11-08_18-04-03,21
650,-780,-1610,2240,-720,850,2025-11-08_18-04-03,22
740,-3090,150,-3680,1090,-430,2025-11-08_18-04-03,23
-70,-2050,-320,-1300,1310,-20,2025-11-08_18-04-03,24
390,-1960,-220,-650,230,0,2025-11-08_18-04-03,25
430,-1820,-500,-910,150,-320,2025-11-08_18-04-03,26
-1430,-1940,-330,-1800,6940,1300,2025-11-08_18-04-03,27
210,-2180,-1270,110,-660,-180,2025-11-08_18-04-03,28
990,-2790,-940,-1790,230,-650,2025-11-08_18-04-03,29
180,-1970,-140,-520,410,-160,2025-11-08_18-04-03,30
590,-1990,-770,-710,-430,-440,2025-11-08_18-04-03,31
1070,-2210,-1520,-1050,-2650,-240,2025-11-08_18-04-03,32
1550,-2310,-1600,6380,-630,1380,2025-11-08_18-04-03,33
400,-960,-1580,2020,-1340,410,2025-11-08_18-04-03,34
830,-3860,790,-3740,1080,-740,2025-11-08_18-04-03,35
0,-1910,10,-930,530,-160,2025-11-08_18-04-03,36
210,-2050,-310,-490,40,-170,2025-11-08_18-04-03,37
-900,-1920,-680,-430,-740,-100,2025-11-08_18-04-03,38
-460,-1460,310,-1050,2290,-370,2025-11-08_18-04-03,39
430,-750,-1420,1380,400,2320,2025-11-08_18-04-03,40
760,-2720,450,-2780,890,-630,2025-11-08_18-04-03,41
290,-1930,250,-880,-130,-430,2025-11-08_18-04-03,42
870,-1830,-240,-590,-140,-230,2025-11-08_18-04-03,43
-140,-1840,-620,-560,-1130,-490,2025-11-08_18-04-03,44
-290,-2590,-210,-910,-1830,-370,2025-11-08_18-04-03,45
780,-3030,-560,5370,1040,1470,2025-11-08_18-04-03,46
300,-890,-1390,1240,430,1280,2025-11-08_18-04-03,47
1060,-2650,210,-2760,1450,-460,2025-11-08_18-04-03,48
300,-1960,-450,-750,-130,-260,2025-11-08_18-04-03,49
190,-2000,-400,-490,330,-140,2025-11-08_18-04-03,50
3330,-1740,50,110,-1830,390,2025-11-08_18-04-03,51
1000,-1590,-1060,2840,-1850,600,2025-11-08_18-04-03,52
720,-2600,10,-3030,650,-760,2025-11-08_18-04-03,53
50,-1840,90,-1070,280,-330,2025-11-08_18-04-03,54
400,-1920,-140,-680,390,-140,2025-11-08_18-04-03,55
-660,-2240,-510,-330,-2620,-860,2025-11-08_18-04-03,56
410,-1920,-310,-710,410,-290,2025-11-08_18-05-05,0
620,-1750,-720,1200,2100,1400,2025-11-08_18-05-05,1
410,-2010,-510,-1120,1130,90,2025-11-08_18-05-05,2
-120,-1990,-200,-710,1200,-170,2025-11-08_18-05-05,3
-200,-2510,-1010,-1760,210,220,2025-11-08_18-05-05,4
110,-1570,-510,2070,-60,410,2025-11-08_18-05-05,5
410,-1780,-900,3050,-640,740,2025-11-08_18-05-05,6
400,-2130,-300,-840,1020,310,2025-11-08_18-05-05,7
170,-2030,-550,-1000,1900,-60,2025-11-08_18-05-05,8
90,-1870,-200,-810,870,50,2025-11-08_18-05-05,9
-10,-2530,170,-1230,1520,-220,2025-11-08_18-05-05,10
300,-1890,-730,2640,-510,810,2025-11-08_18-05-05,11
530,-2410,710,-1730,-110,-710,2025-11-08_18-05-05,12
260,-1810,-60,-820,-50,-100,2025-11-08_18-05-05,13
70,-1910,-420,-750,-240,-110,2025-11-08_18-05-05,14
400,-1730,-1080,-1110,-1060,-660,2025-11-08_18-05-05,15
550,-1760,-430,3090,100,810,2025-11-08_18-05-05,16
740,-1640,-620,1060,1070,1460,2025-11-08_18-05-05,17
90,-2000,-310,-1080,1570,-20,2025-11-08_18-05-05,18
50,-1800,-10,-670,300,-130,2025-11-08_18-05-05,19
40,-2340,-1370,-1660,990,210,2025-11-08_18-05-05,20
180,-1410,-130,-150,-470,440,2025-11-08_18-05-05,21
320,-1810,-660,3130,-880,970,2025-11-08_18-05-05,22
340,-1560,-560,370,2080,410,2025-11-08_18-05-05,23
350,-2110,-500,-1840,1670,-170,2025-11-08_18-05-05,24
-250,-1980,40,-620,1150,70,2025-11-08_18-05-05,25
-100,-1180,-230,-900,-500,-150,2025-11-08_18-05-05,26
480,-1860,-510,3710,-1170,830,2025-11-08_18-05-05,27
340,-2060,-470,220,1300,-160,2025-11-08_18-05-05,28
-20,-2310,200,-2010,510,-550,2025-11-08_18-05-05,29
240,-1900,-200,-830,-60,0,2025-11-08_18-05-05,30
-180,-1980,-200,-740,-280,-160,2025-11-08_18-05-05,31
1040,-2120,-690,-1370,-1050,-680,2025-11-08_18-05-05,32
750,-1680,300,2930,920,540,2025-11-08_18-05-05,33
790,-1750,-400,520,3080,1760,2025-11-08_18-05-05,34
280,-2060,-280,-1300,1000,-370,2025-11-08_18-05-05,35
170,-1830,0,-610,250,-130,2025-11-08_18-05-05,36
30,-1870,-1260,-1540,440,180,2025-11-08_18-05-05,37
220,-1570,-330,-1460,-300,140,2025-11-08_18-05-05,38
720,-1770,-520,3940,-1250,1010,2025-11-08_18-05-05,39
370,-1860,-480,1240,2670,1740,2025-11-08_18-05-05,40
80,-1970,-510,-1400,1500,-130,2025-11-08_18-05-05,41
-70,-1830,-10,-560,880,0,2025-11-08_18-05-05,42
770,-1270,-180,-1310,-650,310,2025-11-08_18-05-05,43
300,-1900,-730,3260,-2470,970,2025-11-08_18-05-05,44
240,-1960,-670,1030,1060,130,2025-11-08_18-05-05,45
180,-1960,-120,-1200,1120,-320,2025-11-08_18-05-05,46
120,-1870,-140,-750,480,-160,2025-11-08_18-05-05,47
200,-1450,-1080,-1360,500,140,2025-11-08_18-05-05,48
560,-1670,290,1400,2100,240,2025-11-08_18-05-05,49
870,-1760,-490,-370,2980,1490,2025-11-08_18-05-05,50
190,-1950,-270,-1010,1530,-200,2025-11-08_18-05-05,51
520,-1880,0,-770,-840,0,2025-11-08_18-05-05,52
1640,-3390,300,-1550,-2420,130,2025-11-08_18-05-05,53
430,-1880,-480,3450,-1320,1020,2025-11-08_18-05-05,54
650,-2290,-180,-300,1610,400,2025-11-08_18-05-05,55
340,-1930,-240,-1310,1590,-270,2025-11-08_18-05-05,56
100,-1850,100,-750,1080,0,2025-11-08_18-05-05,57
300,-2820,1040,-340,530,30,2025-11-08_18-05-05,58
300,-1960,-730,2020,480,1180,2025-11-08_18-05-05,59
1121,-1839,-1041,-323,3613,1591,2025-11-12_19-25-37,0
1247,-2029,494,-2239,1362,-348,2025-11-12_19-25-37,1
604,-1853,-24,-862,-114,-40,2025-11-12_19-25-37,2
1032,-1930,19,-697,-747,362,2025-11-12_19-25-37,3
-78,-2488,-1357,-1162,1255,43,2025-11-12_19-25-37,4
507,-1407,325,-435,-58,452,2025-11-12_19-25-37,5
1107,-1493,52,3227,587,267,2025-11-12_19-25-37,6
502,-1688,-668,3432,1141,340,2025-11-12_19-25-37,7
727,-2395,-899,764,698,-98,2025-11-12_19-25-37,8
1467,-2645,1011,-2476,290,-285,2025-11-12_19-25-37,9
854,-1800,78,-1146,713,201,2025-11-12_19-25-37,10
308,-2126,-165,-258,884,-157,2025-11-12_19-25-37,11
479,-1510,-219,-1147,-833,280,2025-11-12_19-25-37,12
693,-1702,-380,3866,609,160,2025-11-12_19-25-37,13
605,-1866,-1155,3263,-379,555,2025-11-12_19-25-37,14
253,-2341,-1426,-469,1391,-36,2025-11-12_19-25-37,15
1010,-2907,926,-2109,75,-452,2025-11-12_19-25-37,16
739,-1972,-221,-1063,477,-7,2025-11-12_19-25-37,17
554,-1906,55,-725,163,-32,2025-11-12_19-25-37,18
1223,-1874,-498,-1306,755,273,2025-11-12_19-25-37,19
2037,-2728,2004,-1036,-1660,573,2025-11-12_19-25-37,20
1109,-1637,-113,2817,2389,541,2025-11-12_19-25-37,21
1352,-1620,-1101,-507,3499,1296,2025-11-12_19-25-37,22
512,-2105,477,-1708,950,-223,2025-11-12_19-25-37,23
471,-1856,282,-904,186,117,2025-11-12_19-25-37,24
184,-1900,-190,-777,854,-380,2025-11-12_19-25-37,25
1396,-1868,-1045,-1933,-2558,273,2025-11-12_19-25-37,26
794,-1482,134,2087,687,66,2025-11-12_19-25-37,27
841,-1643,-942,3422,1650,438,2025-11-12_19-25-37,28
1153,-2462,-1057,102,1314,340,2025-11-12_19-25-37,29
807,-2304,222,-2152,790,-332,2025-11-12_19-25-37,30
432,-1837,414,-716,-152,40,2025-11-12_19-25-37,31
612,-2068,-25,-536,-346,310,2025-11-12_19-25-37,32
1089,-2628,-357,-1359,-5,-85,2025-11-12_19-25-37,33
620,-1807,145,2661,732,-123,2025-11-12_19-25-37,34
603,-1793,-990,2731,498,1121,2025-11-12_19-25-37,35
-79,-2349,-1062,-500,1278,306,2025-11-12_19-25-37,36
1054,-2129,582,-2227,394,-303,2025-11-12_19-25-37,37
718,-1932,122,-1200,884,-94,2025-11-12_19-25-37,38
641,-1848,99,-702,-75,-36,2025-11-12_19-25-37,39
-63,-2097,-475,-840,-365,135,2025-11-12_19-25-37,40
-156,-2700,-1645,-1223,708,17,2025-11-12_19-25-37,41
378,-1520,291,-565,-168,359,2025-11-12_19-25-37,42
759,-1714,404,2173,3018,103,2025-11-12_19-25-37,43
879,-1529,-958,2163,2841,1124,2025-11-12_19-25-37,44
133,-2807,-157,-3589,3991,129,2025-11-12_19-25-37,45
1169,-2561,1248,-2457,923,-569,2025-11-12_19-25-37,46
964,-1768,287,-1241,381,7,2025-11-12_19-25-37,47
257,-1955,152,-745,659,32,2025-11-12_19-25-37,48
955,-1891,235,-782,-382,301,2025-11-12_19-25-37,49
-258,-2096,-417,-965,1131,-543,2025-11-12_19-25-37,50
-50,-2510,-1566,-1679,1009,217,2025-11-12_19-25-37,51
435,-1242,-451,-1150,-1288,623,2025-11-12_19-25-37,52
899,-1791,-97,2438,3986,266,2025-11-12_19-25-37,53
900,-1636,-785,1194,2296,1345,2025-11-12_19-25-37,54
1295,-3078,750,-2615,485,-396,2025-11-12_19-25-37,55
634,-2084,425,-1772,1483,-172,2025-11-12_19-25-37,56
491,-1900,215,-698,88,134,2025-11-12_19-25-37,57
641,-2056,-78,-728,-779,346,2025-11-12_19-25-37,58
939,-2320,-893,-1557,-620,363,2025-11-12_19-25-37,59
55,-2097,251,-481,469,-33,2025-11-12_19-26-39,0
360,-1333,-576,-1610,551,-123,2025-11-12_19-26-39,1
1003,-1616,192,3032,-136,194,2025-11-12_19-26-39,2
212,-1508,-1099,4695,245,367,2025-11-12_19-26-39,3
743,-1660,-1333,3878,-437,632,2025-11-12_19-26-39,4
499,-1475,-1129,1507,1074,551,2025-11-12_19-26-39,5
-1,-3257,121,-1659,2493,4,2025-11-12_19-26-39,6
1973,-3100,1339,-3008,231,-200,2025-11-12_19-26-39,7
877,-2050,664,-1711,558,-137,2025-11-12_19-26-39,8
531,-1854,278,-557,101,50,2025-11-12_19-26-39,9
-77,-2248,-307,-944,-324,238,2025-11-12_19-26-39,10
1054,-3058,726,-1972,1553,-125,2025-11-12_19-26-39,11
333,-1730,-688,3934,430,456,2025-11-12_19-26-39,12
637,-1607,-1106,2297,472,1017,2025-11-12_19-26-39,13
159,-3151,-523,-1433,2125,-469,2025-11-12_19-26-39,14
880,-2820,912,-1925,-188,-442,2025-11-12_19-26-39,15
558,-1881,209,-1178,190,6,2025-11-12_19-26-39,16
223,-1972,215,-643,130,68,2025-11-12_19-26-39,17
646,-2040,-109,-772,-482,178,2025-11-12_19-26-39,18
708,-2395,-1190,-1538,-736,471,2025-11-12_19-26-39,19
1104,-1622,457,-1627,-1177,390,2025-11-12_19-26-39,20
952,-1650,-20,2810,2752,16,2025-11-12_19-26-39,21
784,-1637,-717,1584,1735,1291,2025-11-12_19-26-39,22
1172,-2889,552,-2454,342,-475,2025-11-12_19-26-39,23
889,-1926,-53,-1096,78,21,2025-11-12_19-26-39,24
486,-1841,339,-674,179,-84,2025-11-12_19-26-39,25
425,-1923,-261,-897,900,-268,2025-11-12_19-26-39,26
1630,-1234,-1290,-2190,-229,428,2025-11-12_19-26-39,27
502,-1249,354,-617,-364,289,2025-11-12_19-26-39,28
680,-1917,-510,4466,82,338,2025-11-12_19-26-39,29
755,-1344,-1292,3996,1023,650,2025-11-12_19-26-39,30
758,-1256,-1082,2355,557,1817,2025-11-12_19-26-39,31
1340,-2549,736,-2456,3175,-53,2025-11-12_19-26-39,32
251,-2025,85,-578,-221,27,2025-11-12_19-26-39,33
1024,-2013,155,-701,-802,236,2025-11-12_19-26-39,34
100,-2530,-902,-1879,561,445,2025-11-12_19-26-39,35
2378,-2403,2337,-453,-2825,725,2025-11-12_19-26-39,36
958,-1574,230,3105,-128,-23,2025-11-12_19-26-39,37
578,-1465,-1094,4268,1038,250,2025-11-12_19-26-39,38
764,-1651,-1043,2977,-7,1092,2025-11-12_19-26-39,39
846,-2077,-951,-1231,754,573,2025-11-12_19-26-39,40
1735,-2729,1187,-2702,480,-236,2025-11-12_19-26-39,41
459,-1949,-151,-1434,2417,-243,2025-11-12_19-26-39,42
545,-2018,-118,-568,78,17,2025-11-12_19-26-39,43
852,-1434,-770,-2011,-2501,309,2025-11-12_19-26-39,44
864,-1825,-448,4246,-221,55,2025-11-12_19-26-39,45
453,-1324,-1246,1633,558,521,2025-11-12_19-26-39,46
1433,-2605,1420,-3040,358,-243,2025-11-12_19-26-39,47
785,-1975,60,-1279,697,-23,2025-11-12_19-26-39,48
638,-1820,296,-447,465,22,2025-11-12_19-26-39,49
-377,-2461,-1526,-1477,-244,618,2025-11-12_19-26-39,50
449,-1442,368,502,-571,496,2025-11-12_19-26-39,51
383,-1528,-922,3743,1494,461,2025-11-12_19-26-39,52
1639,-2024,-1382,-3441,7252,1048,2025-11-12_19-26-39,53
491,-1957,-212,-818,240,63,2025-11-12_19-26-39,54
820,-1928,107,-554,-37,104,2025-11-12_19-26-39,55
645,-2144,-675,-1308,-643,277,2025-11-12_19-26-39,56
656,-1924,-375,-1482,1398,65,2025-11-12_19-27-40,0
812,-2276,1167,-2541,-1567,338,2025-11-12_19-27-40,1
915,-1783,-138,3020,1642,79,2025-11-12_19-27-40,2
787,-1470,-705,1840,2560,1257,2025-11-12_19-27-40,3
1206,-2352,1031,-2273,953,-253,2025-11-12_19-27-40,4
381,-1930,216,-753,-144,127,2025-11-12_19-27-40,5
692,-2024,-190,-650,-772,355,2025-11-12_19-27-40,6
751,-2407,-1859,-1274,-478,337,2025-11-12_19-27-40,7
460,-1342,291,57,-1217,269,2025-11-12_19-27-40,8
486,-1919,-424,4174,1053,465,2025-11-12_19-27-40,9
776,-1665,-1033,3131,-43,1008,2025-11-12_19-27-40,10
291,-3270,-82,-1126,2123,-213,2025-11-12_19-27-40,11
891,-2028,262,-2087,516,-137,2025-11-12_19-27-40,12
294,-1807,371,-800,464,190,2025-11-12_19-27-40,13
397,-2043,-522,-805,1427,-201,2025-11-12_19-27-40,14
739,-1497,566,1545,669,654,2025-11-12_19-27-40,15
889,-1586,-875,3534,1000,455,2025-11-12_19-27-40,16
487,-1941,-1050,1015,921,-51,2025-11-12_19-27-40,17
941,-2879,1531,-3466,1279,-476,2025-11-12_19-27-40,18
633,-1926,701,-1861,266,-171,2025-11-12_19-27-40,19
537,-1795,152,-969,-92,63,2025-11-12_19-27-40,20
578,-1917,266,-700,888,-111,2025-11-12_19-27-40,21
1693,-1841,-487,-902,1210,-32,2025-11-12_19-27-40,22
2067,-4029,2076,-464,-1765,33,2025-11-12_19-27-40,23
927,-1757,207,2869,1818,117,2025-11-12_19-27-40,24
722,-1499,-1057,2372,808,1437,2025-11-12_19-27-40,25
1788,-2139,883,-2956,1648,-106,2025-11-12_19-27-40,26
335,-2031,-141,-1368,1723,-108,2025-11-12_19-27-40,27
170,-2022,160,-577,391,45,2025-11-12_19-27-40,28
247,-1736,-499,-1266,-695,362,2025-11-12_19-27-40,29
1188,-1480,417,2504,1008,-9,2025-11-12_19-27-40,30
683,-1420,-1201,1878,1103,1485,2025-11-12_19-27-40,31
1031,-2585,189,-2181,1040,-163,2025-11-12_19-27-40,32
620,-1831,193,-864,959,90,2025-11-12_19-27-40,33
456,-2022,-3,-834,-8,117,2025-11-12_19-27-40,34
504,-1146,860,-670,-53,-110,2025-11-12_19-27-40,35
1236,-1297,-1091,2080,2462,1542,2025-11-12_19-27-40,36
1645,-1885,349,-3199,1950,-16,2025-11-12_19-27-40,37
645,-1821,33,-927,766,79,2025-11-12_19-27-40,38
253,-2042,-273,-846,458,11,2025-11-12_19-27-40,39
483,-1082,1133,262,1190,-126,2025-11-12_19-27-40,40
962,-1339,-1010,-1195,4221,1139,2025-11-12_19-27-40,41
510,-2007,-228,-874,606,-117,2025-11-12_19-27-40,42
705,-1917,-85,-230,343,-252,2025-11-12_19-27-40,43
816,-1827,237,-196,443,30,2025-11-12_19-27-40,44
978,-1774,150,-14,243,40,2025-11-12_19-27-40,45
878,-1810,195,-7,235,-30,2025-11-12_19-27-40,46
901,-1793,205,-31,220,-34,2025-11-12_19-27-40,47
918,-1794,202,-12,230,-30,2025-11-12_19-27-40,48
923,-1783,192,-21,209,-18,2025-11-12_19-27-40,49
903,-1801,177,-14,189,-25,2025-11-12_19-27-40,50
917,-1790,175,-19,199,-27,2025-11-12_19-27-40,51
924,-1795,180,-21,213,-21,2025-11-12_19-27-40,52
907,-1790,179,-5,192,-30,2025-11-12_19-27-40,53
919,-1788,178,-21,210,-18,2025-11-12_19-27-40,54
920,-1793,199,-8,192,-23,2025-11-12_19-27-40,55
919,-1799,175,-26,219,-26,2025-11-12_19-27-40,56
2736,-2503,-657,-399,346,660,2025-11-12_19-32-34,0
801,-2721,1260,-2030,-1761,104,2025-11-12_19-32-34,1
387,-2090,-29,-1062,-1232,-61,2025-11-12_19-32-34,2
622,-1944,34,-929,-127,-102,2025-11-12_19-32-34,3
349,-2528,16,-800,573,-191,2025-11-12_19-32-34,4
659,-1963,-715,639,4945,-844,2025-11-12_19-32-34,5
967,-1818,-836,2646,1329,214,2025-11-12_19-32-34,6
-136,-2431,629,-2199,-2037,-120,2025-11-12_19-32-34,7
345,-2096,-68,-1292,-658,-137,2025-11-12_19-32-34,8
586,-1862,-53,-735,-66,-124,2025-11-12_19-32-34,9
215,-1890,-317,-970,-1659,-403,2025-11-12_19-32-34,10
1360,-3753,-79,-1628,2095,-728,2025-11-12_19-32-34,11
23,-1950,94,3124,1017,73,2025-11-12_19-32-34,12
436,-1791,-1083,3250,1888,-209,2025-11-12_19-32-34,13
369,-2537,-984,115,2683,62,2025-11-12_19-32-34,14
210,-2170,153,-1884,-1351,-40,2025-11-12_19-32-34,15
251,-1950,-271,-664,-88,-185,2025-11-12_19-32-34,16
160,-1923,-750,-820,2560,-734,2025-11-12_19-32-34,17
222,-1868,-500,4122,-252,354,2025-11-12_19-32-34,18
412,-1626,-858,1740,602,-32,2025-11-12_19-32-34,19
-407,-3108,609,-2354,-1046,-343,2025-11-12_19-32-34,20
404,-2074,53,-1001,-725,-142,2025-11-12_19-32-34,21
396,-1964,-381,-713,999,-259,2025-11-12_19-32-34,22
380,-2097,-299,-1072,-1031,-683,2025-11-12_19-32-34,23
452,-2561,-97,-2674,3095,-346,2025-11-12_19-32-34,24
-229,-1967,-432,2466,1888,299,2025-11-12_19-32-34,25
242,-1667,-1092,3855,922,344,2025-11-12_19-32-34,26
1846,-1458,-1237,-1103,1618,758,2025-11-12_19-32-34,27
223,-1942,-196,-340,106,33,2025-11-12_19-32-34,28
-611,-2028,-821,-1414,1954,-783,2025-11-12_19-32-34,29
42,-1930,-46,2629,668,-73,2025-11-12_19-32-34,30
494,-1583,-1059,3528,800,-140,2025-11-12_19-32-34,31
961,-1891,-850,-1320,409,-541,2025-11-12_19-32-34,32
336,-2149,-126,-1491,-723,-71,2025-11-12_19-32-34,33
714,-1873,5,-751,-207,-188,2025-11-12_19-32-34,34
1283,-1842,-288,-999,-3749,-206,2025-11-12_19-32-34,35
478,-2165,-941,-1472,2501,-131,2025-11-12_19-32-34,36
506,-1286,302,447,1102,-317,2025-11-12_19-32-34,37
1104,-1621,-903,3701,1613,1069,2025-11-12_19-32-34,38
1327,-1378,-1167,976,4721,2114,2025-11-12_19-32-34,39
494,-1982,-332,-359,368,-321,2025-11-12_19-32-34,40
-41,-2010,-360,-924,-447,-486,2025-11-12_19-32-34,41
1023,-2642,-328,-2380,3523,-518,2025-11-12_19-32-34,42
412,-2058,-184,3667,68,664,2025-11-12_19-32-34,43
1203,-1579,-1218,2690,2072,1119,2025-11-12_19-32-34,44
1605,-2640,-188,-554,-1506,413,2025-11-12_19-32-34,45
344,-2139,266,-1317,-422,25,2025-11-12_19-32-34,46
445,-2030,-297,-659,651,-69,2025-11-12_19-32-34,47
-977,-3083,-259,-2391,4836,-732,2025-11-12_19-32-34,48
454,-1997,-604,4261,-50,736,2025-11-12_19-32-34,49
514,-1715,-672,1838,-384,-94,2025-11-12_19-32-34,50
-234,-2989,535,-2340,-659,-164,2025-11-12_19-32-34,51
424,-1995,134,-984,-841,-133,2025-11-12_19-32-34,52
441,-1856,3,-558,-20,-46,2025-11-12_19-32-34,53
788,-1693,-1369,-994,3196,-856,2025-11-12_19-32-34,54
1211,-1907,-369,1092,4316,-880,2025-11-12_19-32-34,55
333,-2082,-1214,1862,2401,-119,2025-11-12_19-32-34,56
-702,-3007,-234,-1963,-541,-533,2025-11-12_19-32-34,57
524,-2082,85,-1298,-982,-156,2025-11-12_19-32-34,58
754,-1829,148,-662,-245,-187,2025-11-12_19-32-34,59
753,-2103,-287,-653,-1033,-1252,2025-11-12_19-33-37,0
627,-1272,201,890,-1128,-655,2025-11-12_19-33-37,1
273,-1646,-1126,3955,615,5,2025-11-12_19-33-37,2
834,-1455,-901,-959,793,-559,2025-11-12_19-33-37,3
302,-2097,-98,-1715,-270,-27,2025-11-12_19-33-37,4
580,-1853,-18,-805,-93,-242,2025-11-12_19-33-37,5
371,-2261,-238,-919,-2230,-201,2025-11-12_19-33-37,6
857,-1342,-380,-854,2021,-795,2025-11-12_19-33-37,7
1489,-1935,-777,2226,3537,1113,2025-11-12_19-33-37,8
321,-2196,-826,-945,623,-441,2025-11-12_19-33-37,9
578,-2007,165,-1217,-1013,-123,2025-11-12_19-33-37,10
693,-1844,82,-767,-4,-114,2025-11-12_19-33-37,11
-238,-2052,-571,-606,-649,-627,2025-11-12_19-33-37,12
-1240,-3897,3477,-658,1230,-1247,2025-11-12_19-33-37,13
0,0,0,0,0,0,2025-11-12_19-33-37,14
1043,-1501,-970,651,4515,1052,2025-11-12_19-33-37,15
213,-2158,60,-1260,53,195,2025-11-12_19-33-37,16
441,-1969,-222,-859,1307,-199,2025-11-12_19-33-37,17
87,-2198,-267,-1088,122,-725,2025-11-12_19-33-37,18
579,-1496,-798,-2055,3059,-455,2025-11-12_19-33-37,19
392,-2038,-582,4474,586,963,2025-11-12_19-33-37,20
960,-1763,-1049,2769,1342,-18,2025-11-12_19-33-37,21
882,-2372,416,-1849,-3165,476,2025-11-12_19-33-37,22
136,-2206,-69,-1052,-295,30,2025-11-12_19-33-37,23
182,-1868,-330,-656,2105,-24,2025-11-12_19-33-37,24
359,-2147,-656,-2481,3932,-389,2025-11-12_19-33-37,25
330,-1956,106,3628,-1138,157,2025-11-12_19-33-37,26
525,-1768,-946,3377,157,-423,2025-11-12_19-33-37,27
592,-2358,-849,33,1738,89,2025-11-12_19-33-37,28
168,-2293,79,-2169,-596,78,2025-11-12_19-33-37,29
445,-1840,175,-972,-423,-149,2025-11-12_19-33-37,30
791,-2069,-467,-966,-4953,-509,2025-11-12_19-33-37,31
683,-1794,-449,-1308,2954,-1029,2025-11-12_19-33-37,32
289,-1471,-1352,4347,1057,716,2025-11-12_19-33-37,33
329,-2352,-1135,787,2287,-500,2025-11-12_19-33-37,34
-578,-3393,1077,-2346,-1657,-5,2025-11-12_19-33-37,35
252,-2129,-95,-1268,-696,6,2025-11-12_19-33-37,36
1020,-1886,-175,-285,-1250,-143,2025-11-12_19-33-37,37
729,-2072,-579,-788,89,-749,2025-11-12_19-33-37,38
-486,-1525,201,-1379,-874,87,2025-11-12_19-33-37,39
415,-1830,-831,4290,1224,340,2025-11-12_19-33-37,40
971,-1426,-820,2118,203,-223,2025-11-12_19-33-37,41
1509,-2853,-1787,-840,266,108,2025-11-12_19-33-37,42
1066,-2616,940,-1850,-1933,28,2025-11-12_19-33-37,43
360,-2060,-64,-905,162,-347,2025-11-12_19-33-37,44
495,-2280,153,-211,411,331,2025-11-12_19-33-37,45
16,-2075,-1329,-1179,4668,-1108,2025-11-12_19-33-37,46
690,-1763,-186,2161,643,-427,2025-11-12_19-33-37,47
12,-1809,-1128,4088,422,-199,2025-11-12_19-33-37,48
334,-1809,-800,914,1219,-33,2025-11-12_19-33-37,49
-176,-3013,938,-2361,-1461,192,2025-11-12_19-33-37,50
530,-1945,160,-1236,-1287,-81,2025-11-12_19-33-37,51
240,-2000,-465,-523,-161,-81,2025-11-12_19-33-37,52
-1564,-2812,-1621,-3864,9218,-1502,2025-11-12_19-33-37,53
875,-1608,-870,3033,399,924,2025-11-12_19-33-37,54
1480,-2218,508,-1208,-2691,33,2025-11-12_19-33-37,55
641,-1964,20,-1088,-1918,-204,2025-11-12_19-33-37,56
177,-2627,254,-1890,-1834,-51,2025-11-12_19-34-38,0
494,-2001,-26,-1289,-1481,-269,2025-11-12_19-34-38,1
638,-1865,-165,-561,241,-193,2025-11-12_19-34-38,2
997,-1910,-50,-205,-1664,-58,2025-11-12_19-34-38,3
-357,-1879,-341,-987,3026,-692,2025-11-12_19-34-38,4
393,-1895,-274,3525,-328,116,2025-11-12_19-34-38,5
596,-1574,-1272,3787,1968,693,2025-11-12_19-34-38,6
746,-1681,-704,2515,-597,-246,2025-11-12_19-34-38,7
2160,-2598,-1578,-1087,158,181,2025-11-12_19-34-38,8
267,-2240,-83,-1946,-657,81,2025-11-12_19-34-38,9
423,-2009,126,-1009,-330,-191,2025-11-12_19-34-38,10
745,-1882,164,-593,-45,-158,2025-11-12_19-34-38,11
547,-1898,-193,-514,-2815,-117,2025-11-12_19-34-38,12
-573,-3425,94,-2020,4730,-798,2025-11-12_19-34-38,13
1461,-1968,-599,2780,3083,380,2025-11-12_19-34-38,14
744,-2144,899,-1443,-858,722,2025-11-12_19-34-38,15
515,-1984,19,-721,-742,-294,2025-11-12_19-34-38,16
296,-2098,-289,-501,-816,-215,2025-11-12_19-34-38,17
1510,-2271,-970,-1284,574,-544,2025-11-12_19-34-38,18
649,-1472,-358,-1274,1277,-525,2025-11-12_19-34-38,19
178,-2207,-462,4865,653,564,2025-11-12_19-34-38,20
1429,-1256,-855,2156,812,696,2025-11-12_19-34-38,21
-199,-2927,896,-2150,-77,656,2025-11-12_19-34-38,22
220,-1947,-215,-659,777,-287,2025-11-12_19-34-38,23
164,-2335,-617,-1164,1743,-1413,2025-11-12_19-34-38,24
496,-1547,-178,-1103,1708,-229,2025-11-12_19-34-38,25
454,-1818,-856,4256,1091,374,2025-11-12_19-34-38,26
1232,-1254,-845,2316,759,363,2025-11-12_19-34-38,27
1443,-2632,-218,-1005,-1982,541,2025-11-12_19-34-38,28
302,-2039,396,-1309,-711,-35,2025-11-12_19-34-38,29
411,-1974,-217,-834,2698,-65,2025-11-12_19-34-38,30
-633,-2721,306,-2076,2971,-662,2025-11-12_19-34-38,31
544,-2214,-848,4919,170,961,2025-11-12_19-34-38,32
582,-1296,-934,2583,600,-23,2025-11-12_19-34-38,33
-697,-3444,-431,-1885,-1738,-724,2025-11-12_19-34-38,34
734,-1985,-297,-590,-454,-282,2025-11-12_19-34-38,35
1180,-1823,-49,-206,-2561,-179,2025-11-12_19-34-38,36
382,-2081,-1147,-1277,1232,-454,2025-11-12_19-34-38,37
976,-1639,-238,1416,1944,-407,2025-11-12_19-34-38,38
572,-1621,-1238,3927,1632,766,2025-11-12_19-34-38,39
808,-1675,-958,-1381,1154,3,2025-11-12_19-34-38,40
218,-2065,496,-1634,-83,154,2025-11-12_19-34-38,41
388,-1964,-56,-462,368,-255,2025-11-12_19-34-38,42
-99,-3713,-868,-2310,6704,-1431,2025-11-12_19-34-38,43
762,-1615,-1156,2999,2140,1032,2025-11-12_19-34-38,44
1479,-2527,-120,-1557,-586,1044,2025-11-12_19-34-38,45
254,-1968,-44,-718,-60,-130,2025-11-12_19-34-38,46
825,-1861,-372,-488,-2937,-227,2025-11-12_19-34-38,47
640,-1458,-18,135,1146,-919,2025-11-12_19-34-38,48
1413,-1224,-1208,3055,2741,2091,2025-11-12_19-34-38,49
257,-2956,911,-1568,-158,317,2025-11-12_19-34-38,50
338,-2007,-197,-979,1260,-89,2025-11-12_19-34-38,51
713,-2260,-391,-333,-581,-1278,2025-11-12_19-34-38,52
925,-1706,96,2127,388,-754,2025-11-12_19-34-38,53
1720,-1533,-938,1530,2067,1561,2025-11-12_19-34-38,54
151,-2033,35,-1569,604,119,2025-11-12_19-34-38,55
750,-2265,-616,4864,1364,886,2025-11-15_11-53-06,0
0,0,0,0,0,0,2025-11-15_11-53-06,1
833,-1148,-1216,2903,1311,594,2025-11-15_11-53-06,2
362,-1232,-1255,1306,-50,-320,2025-11-15_11-53-06,3
747,-3347,578,-1472,-4111,-779,2025-11-15_11-53-06,4
764,-1710,-756,-427,-1938,-602,2025-11-15_11-53-06,5
880,-1851,-245,-493,-411,-125,2025-11-15_11-53-06,6
558,-2638,-825,-2011,-1027,-971,2025-11-15_11-53-06,7
1312,-1585,-1178,-2047,2525,-1014,2025-11-15_11-53-06,8
702,-2179,68,4053,779,756,2025-11-15_11-53-06,9
590,-1463,-1248,4225,1569,82,2025-11-15_11-53-06,10
887,-1071,-1132,1806,-367,-400,2025-11-15_11-53-06,11
1348,-2345,29,-774,-2851,-402,2025-11-15_11-53-06,12
498,-2961,108,-2641,-308,-574,2025-11-15_11-53-06,13
36,-2143,260,-1559,-360,-263,2025-11-15_11-53-06,14
279,-1985,-117,-815,108,-368,2025-11-15_11-53-06,15
-139,-2268,-364,-771,914,-324,2025-11-15_11-53-06,16
-442,-3616,-919,-2761,4550,-955,2025-11-15_11-53-06,17
253,-1979,-475,3278,592,446,2025-11-15_11-53-06,18
232,-1706,-1098,4001,386,20,2025-11-15_11-53-06,19
613,-1323,-742,1386,-211,119,2025-11-15_11-53-06,20
883,-2925,819,-1646,-2520,-375,2025-11-15_11-53-06,21
-696,-2511,274,-2255,-754,-523,2025-11-15_11-53-06,22
357,-1908,-399,-730,794,-207,2025-11-15_11-53-06,23
130,-1743,-530,-60,-2477,-748,2025-11-15_11-53-06,24
-689,-3336,-1451,-3140,5697,-659,2025-11-15_11-53-06,25
303,-1316,-213,-469,1234,-168,2025-11-15_11-53-06,26
422,-1868,-615,4663,810,863,2025-11-15_11-53-06,27
644,-1481,-1245,3756,1686,882,2025-11-15_11-53-06,28
1101,-1139,-1198,876,1470,835,2025-11-15_11-53-06,29
-139,-4430,939,-2571,-583,-39,2025-11-15_11-53-06,30
366,-1971,-497,-937,594,-214,2025-11-15_11-53-06,31
447,-2111,-451,-777,757,-558,2025-11-15_11-53-06,32
721,-2262,-979,-1114,-130,-876,2025-11-15_11-53-06,33
1311,-5351,-1143,-1921,2463,-479,2025-11-15_11-53-06,34
678,-1232,-163,-318,1631,-414,2025-11-15_11-53-06,35
626,-2051,-394,4385,360,466,2025-11-15_11-53-06,36
580,-2059,-1121,5030,1035,1301,2025-11-15_11-53-06,37
289,-1534,-1180,4131,2144,203,2025-11-15_11-53-06,38
476,-1088,-1286,1492,-283,-488,2025-11-15_11-53-06,39
508,-2438,-1384,-784,-3076,-1239,2025-11-15_11-53-06,40
679,-1855,79,-341,-380,-49,2025-11-15_11-53-06,41
113,-1954,-630,-717,-1176,-489,2025-11-15_11-53-06,42
1439,-1823,-1401,-1720,-760,-1018,2025-11-15_11-53-06,43
1329,-4186,-1744,-2549,4103,-779,2025-11-15_11-53-06,44
697,-1093,-291,-394,1395,-393,2025-11-15_11-53-06,45
380,-2602,-651,5183,1020,1145,2025-11-15_11-53-06,46
528,-1509,-1058,4651,2157,454,2025-11-15_11-53-06,47
844,-1025,-1163,1794,-216,-238,2025-11-15_11-53-06,48
1136,-2864,272,-1439,-3626,-9,2025-11-15_11-53-06,49
-72,-2296,177,-1879,336,-76,2025-11-15_11-53-06,50
0,-1963,-380,-456,526,-40,2025-11-15_11-53-06,51
233,-2092,-462,-495,-756,-1453,2025-11-15_11-53-06,52
82,-1932,344,-1801,379,-594,2025-11-15_11-53-06,53
700,-2022,-477,3753,975,779,2025-11-15_11-53-06,54
395,-1404,-1362,4376,1630,930,2025-11-15_11-53-06,55
905,-1348,-1063,3194,1834,-162,2025-11-15_11-53-06,56
690,-2383,-906,80,-157,-100,2025-11-15_11-53-06,57
204,-3763,1504,-2216,-3159,-177,2025-11-15_11-53-06,58
819,-2439,777,-2239,-1810,-465,2025-11-15_11-53-06,59
578,-2288,-881,-1162,528,-511,2025-11-15_11-54-09,0
284,-3567,583,-1764,-3453,-848,2025-11-15_11-54-09,1
13,-3500,455,-2964,-482,-533,2025-11-15_11-54-09,2
300,-2274,166,-2261,-77,-213,2025-11-15_11-54-09,3
542,-2249,-50,-1237,-816,-355,2025-11-15_11-54-09,4
507,-1835,182,-598,-1002,-459,2025-11-15_11-54-09,5
700,-1837,-10,-350,-289,-311,2025-11-15_11-54-09,6
289,-2109,-670,-364,-1580,-481,2025-11-15_11-54-09,7
953,-1428,-1442,-2065,6050,-1142,2025-11-15_11-54-09,8
853,-2140,-713,3633,1709,494,2025-11-15_11-54-09,9
-542,-1980,-1225,3651,288,-558,2025-11-15_11-54-09,10
487,-2842,836,-1096,-4611,-708,2025-11-15_11-54-09,11
77,-2510,56,-2166,-459,-426,2025-11-15_11-54-09,12
426,-2028,-23,-1391,-40,-231,2025-11-15_11-54-09,13
313,-1922,59,-826,-365,-348,2025-11-15_11-54-09,14
443,-1955,-201,-412,-115,-318,2025-11-15_11-54-09,15
1121,-1625,-691,-284,-3948,-6,2025-11-15_11-54-09,16
-285,-1765,-1291,-2166,1177,-1057,2025-11-15_11-54-09,17
79,-1799,-187,1664,-2869,-761,2025-11-15_11-54-09,18
249,-1694,-958,3894,-909,302,2025-11-15_11-54-09,19
2206,-1917,-2363,-1003,271,-226,2025-11-15_11-54-09,20
-284,-3501,949,-2633,-655,-572,2025-11-15_11-54-09,21
564,-1884,75,-1605,552,-455,2025-11-15_11-54-09,22
695,-1976,386,-1215,-700,-371,2025-11-15_11-54-09,23
466,-1866,-32,-616,-763,-444,2025-11-15_11-54-09,24
359,-1929,-257,-539,-359,-230,2025-11-15_11-54-09,25
1235,-1910,-506,-798,615,-436,2025-11-15_11-54-09,26
2445,-1669,-1926,-1583,-1898,-1207,2025-11-15_11-54-09,27
-274,-2983,2590,-1115,5545,-1322,2025-11-15_11-54-09,28
1263,-2532,-618,3946,2427,-331,2025-11-15_11-54-09,29
1159,-1534,-990,2138,2349,236,2025-11-15_11-54-09,30
444,-3220,1147,-1404,-3477,-1184,2025-11-15_11-54-09,31
251,-2222,-171,-1640,-1129,-402,2025-11-15_11-54-09,32
421,-2154,-66,-1274,-462,-215,2025-11-15_11-54-09,33
412,-1792,237,-583,-476,-360,2025-11-15_11-54-09,34
223,-1976,-258,-664,423,-379,2025-11-15_11-54-09,35
-193,-2072,-557,-544,-2473,-408,2025-11-15_11-54-09,36
813,-1934,-1067,-1799,-1809,-808,2025-11-15_11-54-09,37
865,-1955,-910,-2386,1358,-1192,2025-11-15_11-54-09,38
658,-2195,-355,4311,-3004,-223,2025-11-15_11-54-09,39
260,-1577,-921,2987,-792,-771,2025-11-15_11-54-09,40
1693,-2347,176,-1164,-2933,-198,2025-11-15_11-54-09,41
209,-2304,541,-2234,-1050,-371,2025-11-15_11-54-09,42
249,-2188,15,-1305,-684,-490,2025-11-15_11-54-09,43
563,-1839,42,-670,-613,-357,2025-11-15_11-54-09,44
385,-1925,-113,-315,-549,-234,2025-11-15_11-54-09,45
7,-1934,-723,-557,-2182,-402,2025-11-15_11-54-09,46
2015,-1758,-1463,-1711,-222,-833,2025-11-15_11-54-09,47
658,-2175,1495,-2384,2253,-1254,2025-11-15_11-54-09,48
365,-2053,-383,4259,1667,188,2025-11-15_11-54-09,49
1338,-1423,-1482,3830,3712,2043,2025-11-15_11-54-09,50
1852,-1286,-958,692,2083,1391,2025-11-15_11-54-09,51
-216,-3316,481,-2418,-490,-695,2025-11-15_11-54-09,52
550,-2230,-317,-1371,-941,-541,2025-11-15_11-54-09,53
580,-1887,275,-884,-846,-418,2025-11-15_11-54-09,54
415,-1977,-21,-506,-492,-212,2025-11-15_11-54-09,55
541,-2077,-329,-909,1231,-375,2025-11-15_11-54-09,56
